SpectraSuite Data File
++++++++++++++++++++++++++++++++++++
Date: Mon Jul 03 10:12:41 CDT 2017
User: jrlab
Dark Spectrum Present: No
Reference Spectrum Present: No
Number of Sampled Component Spectra: 1
Spectrometers: HR4C2500
Integration Time (usec): 100000 (HR4C2500)
Spectra Averaged: 1 (HR4C2500)
Boxcar Smoothing: 0 (HR4C2500)
Correct for Electrical Dark: No (HR4C2500)
Strobe/Lamp Enabled: No (HR4C2500)
Correct for Detector Non-linearity: No (HR4C2500)
Correct for Stray Light: Yes (HR4C2500)
Number of Pixels in Processed Spectrum: 3648
>>>>>Begin Processed Spectral Data<<<<<
629.67	814.00
629.68	814.00
629.70	814.00
629.72	825.00
629.74	843.00
629.76	915.00
629.78	931.00
629.79	950.00
629.81	920.00
629.83	904.00
629.85	928.00
629.87	926.00
629.89	947.00
629.90	903.00
629.92	902.00
629.94	918.00
629.96	937.00
629.98	907.00
630.00	907.00
630.01	942.00
630.03	928.00
630.05	934.00
630.07	931.00
630.09	938.00
630.11	927.00
630.12	924.00
630.14	921.00
630.16	899.00
630.18	922.00
630.20	934.00
630.22	952.00
630.23	1036.00
630.25	964.00
630.27	959.00
630.29	948.00
630.31	925.00
630.33	934.00
630.34	927.00
630.36	948.00
630.38	962.00
630.40	935.00
630.42	932.00
630.43	919.00
630.45	923.00
630.47	930.00
630.49	925.00
630.51	952.00
630.53	930.00
630.54	945.00
630.56	957.00
630.58	936.00
630.60	920.00
630.62	924.00
630.63	931.00
630.65	934.00
630.67	931.00
630.69	912.00
630.71	934.00
630.73	939.00
630.74	924.00
630.76	907.00
630.78	900.00
630.80	916.00
630.82	939.00
630.84	953.00
630.85	936.00
630.87	934.00
630.89	927.00
630.91	917.00
630.93	910.00
630.94	946.00
630.96	957.00
630.98	970.00
631.00	931.00
631.02	931.00
631.03	922.00
631.05	906.00
631.07	929.00
631.09	938.00
631.11	922.00
631.13	938.00
631.14	946.00
631.16	937.00
631.18	922.00
631.20	936.00
631.22	916.00
631.23	894.00
631.25	907.00
631.27	915.00
631.29	931.00
631.31	937.00
631.33	930.00
631.34	932.00
631.36	919.00
631.38	935.00
631.40	934.00
631.42	921.00
631.43	912.00
631.45	924.00
631.47	895.00
631.49	891.00
631.51	909.00
631.52	904.00
631.54	916.00
631.56	907.00
631.58	915.00
631.60	909.00
631.61	892.00
631.63	904.00
631.65	913.00
631.67	914.00
631.69	944.00
631.70	963.00
631.72	951.00
631.74	917.00
631.76	922.00
631.78	925.00
631.80	937.00
631.81	943.00
631.83	914.00
631.85	948.00
631.87	937.00
631.89	916.00
631.90	921.00
631.92	916.00
631.94	921.00
631.96	921.00
631.98	941.00
631.99	920.00
632.01	911.00
632.03	929.00
632.05	939.00
632.07	938.00
632.08	935.00
632.10	909.00
632.12	913.00
632.14	931.00
632.16	938.00
632.17	931.00
632.19	906.00
632.21	916.00
632.23	918.00
632.25	917.00
632.26	923.00
632.28	946.00
632.30	915.00
632.32	924.00
632.34	923.00
632.35	931.00
632.37	922.00
632.39	913.00
632.41	925.00
632.43	910.00
632.44	932.00
632.46	941.00
632.48	921.00
632.50	916.00
632.52	920.00
632.53	931.00
632.55	915.00
632.57	913.00
632.59	904.00
632.61	907.00
632.62	921.00
632.64	917.00
632.66	891.00
632.68	905.00
632.69	910.00
632.71	913.00
632.73	930.00
632.75	928.00
632.77	917.00
632.78	943.00
632.80	949.00
632.82	956.00
632.84	932.00
632.86	925.00
632.87	927.00
632.89	913.00
632.91	917.00
632.93	927.00
632.95	941.00
632.96	931.00
632.98	926.00
633.00	909.00
633.02	916.00
633.03	929.00
633.05	922.00
633.07	903.00
633.09	909.00
633.11	936.00
633.12	961.00
633.14	940.00
633.16	958.00
633.18	940.00
633.20	951.00
633.21	952.00
633.23	937.00
633.25	917.00
633.27	918.00
633.28	915.00
633.30	915.00
633.32	923.00
633.34	929.00
633.36	948.00
633.37	931.00
633.39	919.00
633.41	910.00
633.43	943.00
633.45	926.00
633.46	907.00
633.48	907.00
633.50	903.00
633.52	918.00
633.53	920.00
633.55	909.00
633.57	908.00
633.59	890.00
633.61	898.00
633.62	919.00
633.64	921.00
633.66	904.00
633.68	899.00
633.69	911.00
633.71	944.00
633.73	945.00
633.75	910.00
633.77	916.00
633.78	938.00
633.80	909.00
633.82	906.00
633.84	909.00
633.85	893.00
633.87	888.00
633.89	906.00
633.91	932.00
633.93	928.00
633.94	924.00
633.96	911.00
633.98	930.00
634.00	897.00
634.01	920.00
634.03	942.00
634.05	914.00
634.07	912.00
634.09	933.00
634.10	921.00
634.12	912.00
634.14	949.00
634.16	941.00
634.17	925.00
634.19	914.00
634.21	903.00
634.23	923.00
634.25	932.00
634.26	937.00
634.28	938.00
634.30	927.00
634.32	914.00
634.33	907.00
634.35	893.00
634.37	905.00
634.39	933.00
634.40	924.00
634.42	905.00
634.44	922.00
634.46	931.00
634.48	942.00
634.49	963.00
634.51	913.00
634.53	926.00
634.55	920.00
634.56	921.00
634.58	902.00
634.60	917.00
634.62	929.00
634.63	929.00
634.65	917.00
634.67	910.00
634.69	927.00
634.70	904.00
634.72	905.00
634.74	937.00
634.76	916.00
634.78	920.00
634.79	924.00
634.81	957.00
634.83	941.00
634.85	914.00
634.86	913.00
634.88	929.00
634.90	911.00
634.92	905.00
634.93	905.00
634.95	930.00
634.97	929.00
634.99	927.00
635.00	925.00
635.02	950.00
635.04	939.00
635.06	926.00
635.08	909.00
635.09	918.00
635.11	928.00
635.13	930.00
635.15	919.00
635.16	933.00
635.18	920.00
635.20	922.00
635.22	934.00
635.23	923.00
635.25	916.00
635.27	917.00
635.29	924.00
635.30	916.00
635.32	900.00
635.34	899.00
635.36	910.00
635.37	929.00
635.39	918.00
635.41	901.00
635.43	916.00
635.44	923.00
635.46	905.00
635.48	929.00
635.50	925.00
635.51	939.00
635.53	931.00
635.55	921.00
635.57	910.00
635.58	918.00
635.60	934.00
635.62	937.00
635.64	913.00
635.65	937.00
635.67	919.00
635.69	926.00
635.71	924.00
635.72	917.00
635.74	901.00
635.76	911.00
635.78	913.00
635.79	929.00
635.81	933.00
635.83	903.00
635.85	889.00
635.86	918.00
635.88	931.00
635.90	929.00
635.92	908.00
635.93	906.00
635.95	915.00
635.97	909.00
635.99	922.00
636.00	972.00
636.02	932.00
636.04	910.00
636.06	943.00
636.07	931.00
636.09	910.00
636.11	925.00
636.13	941.00
636.14	925.00
636.16	937.00
636.18	921.00
636.20	915.00
636.21	927.00
636.23	924.00
636.25	917.00
636.27	923.00
636.28	941.00
636.30	932.00
636.32	923.00
636.34	918.00
636.35	929.00
636.37	923.00
636.39	918.00
636.41	930.00
636.42	932.00
636.44	935.00
636.46	921.00
636.48	905.00
636.49	889.00
636.51	901.00
636.53	917.00
636.54	916.00
636.56	917.00
636.58	906.00
636.60	908.00
636.61	935.00
636.63	927.00
636.65	956.00
636.67	946.00
636.68	926.00
636.70	918.00
636.72	906.00
636.74	922.00
636.75	920.00
636.77	924.00
636.79	934.00
636.81	918.00
636.82	914.00
636.84	906.00
636.86	910.00
636.87	903.00
636.89	919.00
636.91	948.00
636.93	931.00
636.94	914.00
636.96	907.00
636.98	924.00
637.00	928.00
637.01	922.00
637.03	915.00
637.05	902.00
637.07	916.00
637.08	917.00
637.10	908.00
637.12	897.00
637.13	925.00
637.15	927.00
637.17	912.00
637.19	913.00
637.20	926.00
637.22	917.00
637.24	923.00
637.26	935.00
637.27	916.00
637.29	934.00
637.31	904.00
637.32	929.00
637.34	928.00
637.36	938.00
637.38	930.00
637.39	918.00
637.41	912.00
637.43	924.00
637.45	909.00
637.46	917.00
637.48	934.00
637.50	935.00
637.51	912.00
637.53	930.00
637.55	914.00
637.57	912.00
637.58	918.00
637.60	925.00
637.62	947.00
637.64	945.00
637.65	943.00
637.67	927.00
637.69	928.00
637.70	926.00
637.72	904.00
637.74	923.00
637.76	929.00
637.77	932.00
637.79	918.00
637.81	933.00
637.82	934.00
637.84	923.00
637.86	925.00
637.88	921.00
637.89	932.00
637.91	920.00
637.93	905.00
637.95	918.00
637.96	941.00
637.98	929.00
638.00	930.00
638.01	906.00
638.03	902.00
638.05	918.00
638.07	904.00
638.08	910.00
638.10	925.00
638.12	920.00
638.13	922.00
638.15	919.00
638.17	886.00
638.19	903.00
638.20	898.00
638.22	905.00
638.24	897.00
638.25	914.00
638.27	900.00
638.29	907.00
638.31	911.00
638.32	910.00
638.34	924.00
638.36	948.00
638.37	942.00
638.39	914.00
638.41	899.00
638.43	916.00
638.44	919.00
638.46	912.00
638.48	919.00
638.49	942.00
638.51	929.00
638.53	913.00
638.55	904.00
638.56	921.00
638.58	925.00
638.60	914.00
638.61	905.00
638.63	914.00
638.65	921.00
638.67	929.00
638.68	917.00
638.70	933.00
638.72	944.00
638.73	917.00
638.75	914.00
638.77	922.00
638.78	932.00
638.80	907.00
638.82	913.00
638.84	918.00
638.85	934.00
638.87	908.00
638.89	901.00
638.90	902.00
638.92	939.00
638.94	916.00
638.96	913.00
638.97	921.00
638.99	941.00
639.01	940.00
639.02	922.00
639.04	935.00
639.06	924.00
639.07	922.00
639.09	940.00
639.11	898.00
639.13	891.00
639.14	913.00
639.16	891.00
639.18	922.00
639.19	940.00
639.21	952.00
639.23	947.00
639.25	916.00
639.26	913.00
639.28	927.00
639.30	920.00
639.31	932.00
639.33	919.00
639.35	931.00
639.36	920.00
639.38	905.00
639.40	935.00
639.42	935.00
639.43	932.00
639.45	918.00
639.47	919.00
639.48	936.00
639.50	945.00
639.52	931.00
639.53	907.00
639.55	900.00
639.57	893.00
639.58	894.00
639.60	899.00
639.62	919.00
639.64	926.00
639.65	933.00
639.67	916.00
639.69	918.00
639.70	930.00
639.72	932.00
639.74	926.00
639.75	934.00
639.77	954.00
639.79	974.00
639.80	961.00
639.82	940.00
639.84	928.00
639.86	927.00
639.87	919.00
639.89	924.00
639.91	906.00
639.92	912.00
639.94	921.00
639.96	926.00
639.97	914.00
639.99	938.00
640.01	934.00
640.02	920.00
640.04	931.00
640.06	928.00
640.08	923.00
640.09	948.00
640.11	934.00
640.13	929.00
640.14	910.00
640.16	918.00
640.18	925.00
640.19	907.00
640.21	906.00
640.23	925.00
640.24	928.00
640.26	931.00
640.28	922.00
640.29	920.00
640.31	905.00
640.33	911.00
640.35	925.00
640.36	911.00
640.38	924.00
640.40	948.00
640.41	961.00
640.43	910.00
640.45	907.00
640.46	913.00
640.48	896.00
640.50	898.00
640.51	907.00
640.53	907.00
640.55	910.00
640.56	919.00
640.58	941.00
640.60	940.00
640.61	920.00
640.63	923.00
640.65	914.00
640.66	911.00
640.68	943.00
640.70	919.00
640.72	905.00
640.73	901.00
640.75	905.00
640.77	948.00
640.78	941.00
640.80	933.00
640.82	918.00
640.83	915.00
640.85	938.00
640.87	934.00
640.88	959.00
640.90	926.00
640.92	910.00
640.93	911.00
640.95	912.00
640.97	915.00
640.98	905.00
641.00	899.00
641.02	920.00
641.03	910.00
641.05	912.00
641.07	910.00
641.08	935.00
641.10	929.00
641.12	937.00
641.13	916.00
641.15	917.00
641.17	923.00
641.18	914.00
641.20	941.00
641.22	947.00
641.23	911.00
641.25	917.00
641.27	934.00
641.28	921.00
641.30	918.00
641.32	915.00
641.34	932.00
641.35	921.00
641.37	933.00
641.39	940.00
641.40	921.00
641.42	935.00
641.44	937.00
641.45	970.00
641.47	933.00
641.49	907.00
641.50	922.00
641.52	909.00
641.54	924.00
641.55	957.00
641.57	962.00
641.59	929.00
641.60	915.00
641.62	909.00
641.64	902.00
641.65	901.00
641.67	932.00
641.69	921.00
641.70	935.00
641.72	941.00
641.74	948.00
641.75	918.00
641.77	923.00
641.79	926.00
641.80	915.00
641.82	933.00
641.84	936.00
641.85	924.00
641.87	934.00
641.88	929.00
641.90	908.00
641.92	912.00
641.93	927.00
641.95	924.00
641.97	919.00
641.98	898.00
642.00	916.00
642.02	928.00
642.03	936.00
642.05	923.00
642.07	902.00
642.08	915.00
642.10	917.00
642.12	925.00
642.13	918.00
642.15	917.00
642.17	908.00
642.18	903.00
642.20	926.00
642.22	964.00
642.23	955.00
642.25	928.00
642.27	931.00
642.28	926.00
642.30	917.00
642.32	915.00
642.33	942.00
642.35	921.00
642.37	900.00
642.38	901.00
642.40	919.00
642.42	933.00
642.43	919.00
642.45	901.00
642.47	903.00
642.48	916.00
642.50	910.00
642.51	911.00
642.53	914.00
642.55	919.00
642.56	926.00
642.58	930.00
642.60	925.00
642.61	922.00
642.63	931.00
642.65	935.00
642.66	951.00
642.68	928.00
642.70	920.00
642.71	909.00
642.73	934.00
642.75	933.00
642.76	921.00
642.78	941.00
642.80	915.00
642.81	906.00
642.83	893.00
642.84	905.00
642.86	909.00
642.88	911.00
642.89	924.00
642.91	964.00
642.93	917.00
642.94	929.00
642.96	937.00
642.98	930.00
642.99	935.00
643.01	927.00
643.03	917.00
643.04	909.00
643.06	919.00
643.08	901.00
643.09	900.00
643.11	897.00
643.12	908.00
643.14	926.00
643.16	926.00
643.17	920.00
643.19	951.00
643.21	948.00
643.22	925.00
643.24	936.00
643.26	925.00
643.27	909.00
643.29	919.00
643.31	927.00
643.32	934.00
643.34	923.00
643.35	926.00
643.37	938.00
643.39	928.00
643.40	909.00
643.42	906.00
643.44	924.00
643.45	956.00
643.47	944.00
643.49	923.00
643.50	926.00
643.52	937.00
643.53	906.00
643.55	920.00
643.57	928.00
643.58	926.00
643.60	909.00
643.62	915.00
643.63	916.00
643.65	924.00
643.67	913.00
643.68	908.00
643.70	918.00
643.71	899.00
643.73	919.00
643.75	926.00
643.76	928.00
643.78	936.00
643.80	934.00
643.81	928.00
643.83	936.00
643.85	921.00
643.86	926.00
643.88	936.00
643.89	932.00
643.91	929.00
643.93	932.00
643.94	945.00
643.96	913.00
643.98	891.00
643.99	923.00
644.01	934.00
644.03	935.00
644.04	926.00
644.06	930.00
644.07	934.00
644.09	919.00
644.11	919.00
644.12	927.00
644.14	910.00
644.16	919.00
644.17	904.00
644.19	932.00
644.20	921.00
644.22	923.00
644.24	937.00
644.25	916.00
644.27	926.00
644.29	926.00
644.30	914.00
644.32	914.00
644.33	933.00
644.35	933.00
644.37	911.00
644.38	906.00
644.40	916.00
644.42	933.00
644.43	916.00
644.45	910.00
644.46	903.00
644.48	909.00
644.50	916.00
644.51	931.00
644.53	922.00
644.55	944.00
644.56	937.00
644.58	938.00
644.59	920.00
644.61	916.00
644.63	925.00
644.64	925.00
644.66	914.00
644.68	883.00
644.69	916.00
644.71	923.00
644.72	922.00
644.74	923.00
644.76	920.00
644.77	911.00
644.79	937.00
644.80	933.00
644.82	906.00
644.84	923.00
644.85	937.00
644.87	944.00
644.89	926.00
644.90	949.00
644.92	929.00
644.93	922.00
644.95	937.00
644.97	922.00
644.98	919.00
645.00	900.00
645.01	910.00
645.03	904.00
645.05	923.00
645.06	925.00
645.08	973.00
645.10	1030.00
645.11	927.00
645.13	927.00
645.14	926.00
645.16	936.00
645.18	917.00
645.19	907.00
645.21	938.00
645.22	925.00
645.24	936.00
645.26	944.00
645.27	927.00
645.29	924.00
645.31	911.00
645.32	924.00
645.34	939.00
645.35	932.00
645.37	917.00
645.39	917.00
645.40	908.00
645.42	913.00
645.43	901.00
645.45	910.00
645.47	924.00
645.48	920.00
645.50	932.00
645.51	911.00
645.53	903.00
645.55	907.00
645.56	913.00
645.58	906.00
645.59	919.00
645.61	916.00
645.63	925.00
645.64	920.00
645.66	936.00
645.68	942.00
645.69	911.00
645.71	905.00
645.72	902.00
645.74	937.00
645.76	929.00
645.77	919.00
645.79	921.00
645.80	936.00
645.82	949.00
645.84	915.00
645.85	956.00
645.87	932.00
645.88	906.00
645.90	906.00
645.92	907.00
645.93	902.00
645.95	906.00
645.96	921.00
645.98	928.00
646.00	927.00
646.01	943.00
646.03	917.00
646.04	914.00
646.06	907.00
646.08	896.00
646.09	920.00
646.11	912.00
646.12	925.00
646.14	920.00
646.16	922.00
646.17	948.00
646.19	948.00
646.20	928.00
646.22	915.00
646.24	940.00
646.25	954.00
646.27	942.00
646.28	940.00
646.30	929.00
646.32	974.00
646.33	965.00
646.35	955.00
646.36	925.00
646.38	898.00
646.39	900.00
646.41	918.00
646.43	922.00
646.44	910.00
646.46	914.00
646.47	925.00
646.49	923.00
646.51	919.00
646.52	898.00
646.54	893.00
646.55	911.00
646.57	920.00
646.59	935.00
646.60	939.00
646.62	923.00
646.63	916.00
646.65	935.00
646.67	926.00
646.68	897.00
646.70	920.00
646.71	926.00
646.73	910.00
646.75	923.00
646.76	932.00
646.78	920.00
646.79	918.00
646.81	939.00
646.82	910.00
646.84	905.00
646.86	909.00
646.87	912.00
646.89	919.00
646.90	903.00
646.92	905.00
646.94	909.00
646.95	909.00
646.97	938.00
646.98	951.00
647.00	941.00
647.01	921.00
647.03	952.00
647.05	939.00
647.06	920.00
647.08	909.00
647.09	908.00
647.11	916.00
647.13	913.00
647.14	922.00
647.16	939.00
647.17	927.00
647.19	913.00
647.20	898.00
647.22	898.00
647.24	914.00
647.25	917.00
647.27	915.00
647.28	918.00
647.30	932.00
647.32	925.00
647.33	915.00
647.35	915.00
647.36	919.00
647.38	947.00
647.39	925.00
647.41	928.00
647.43	926.00
647.44	927.00
647.46	918.00
647.47	915.00
647.49	916.00
647.50	929.00
647.52	916.00
647.54	915.00
647.55	882.00
647.57	902.00
647.58	936.00
647.60	936.00
647.62	915.00
647.63	931.00
647.65	913.00
647.66	914.00
647.68	918.00
647.69	924.00
647.71	916.00
647.73	893.00
647.74	897.00
647.76	914.00
647.77	933.00
647.79	928.00
647.80	922.00
647.82	934.00
647.84	951.00
647.85	932.00
647.87	926.00
647.88	913.00
647.90	921.00
647.91	943.00
647.93	936.00
647.95	904.00
647.96	915.00
647.98	938.00
647.99	930.00
648.01	936.00
648.02	930.00
648.04	925.00
648.06	922.00
648.07	915.00
648.09	912.00
648.10	906.00
648.12	902.00
648.13	906.00
648.15	921.00
648.17	927.00
648.18	912.00
648.20	917.00
648.21	910.00
648.23	916.00
648.24	925.00
648.26	938.00
648.27	922.00
648.29	928.00
648.31	919.00
648.32	934.00
648.34	920.00
648.35	936.00
648.37	957.00
648.38	1009.00
648.40	927.00
648.42	910.00
648.43	920.00
648.45	934.00
648.46	943.00
648.48	936.00
648.49	901.00
648.51	922.00
648.52	928.00
648.54	894.00
648.56	910.00
648.57	937.00
648.59	939.00
648.60	932.00
648.62	921.00
648.63	903.00
648.65	924.00
648.67	936.00
648.68	918.00
648.70	919.00
648.71	922.00
648.73	944.00
648.74	940.00
648.76	949.00
648.77	956.00
648.79	930.00
648.81	913.00
648.82	909.00
648.84	934.00
648.85	907.00
648.87	906.00
648.88	923.00
648.90	918.00
648.91	909.00
648.93	932.00
648.95	939.00
648.96	940.00
648.98	931.00
648.99	925.00
649.01	923.00
649.02	917.00
649.04	916.00
649.05	917.00
649.07	922.00
649.09	915.00
649.10	922.00
649.12	905.00
649.13	925.00
649.15	917.00
649.16	926.00
649.18	924.00
649.19	908.00
649.21	941.00
649.22	931.00
649.24	941.00
649.26	950.00
649.27	936.00
649.29	945.00
649.30	930.00
649.32	910.00
649.33	901.00
649.35	908.00
649.36	916.00
649.38	919.00
649.40	925.00
649.41	940.00
649.43	939.00
649.44	912.00
649.46	910.00
649.47	911.00
649.49	912.00
649.50	938.00
649.52	936.00
649.53	936.00
649.55	925.00
649.57	939.00
649.58	934.00
649.60	925.00
649.61	916.00
649.63	937.00
649.64	910.00
649.66	916.00
649.67	955.00
649.69	960.00
649.70	949.00
649.72	956.00
649.73	936.00
649.75	963.00
649.77	925.00
649.78	909.00
649.80	905.00
649.81	921.00
649.83	937.00
649.84	922.00
649.86	919.00
649.87	916.00
649.89	923.00
649.90	925.00
649.92	918.00
649.94	920.00
649.95	924.00
649.97	895.00
649.98	905.00
650.00	923.00
650.01	915.00
650.03	924.00
650.04	910.00
650.06	915.00
650.07	928.00
650.09	937.00
650.10	941.00
650.12	913.00
650.13	921.00
650.15	912.00
650.17	917.00
650.18	933.00
650.20	924.00
650.21	929.00
650.23	927.00
650.24	936.00
650.26	925.00
650.27	923.00
650.29	923.00
650.30	934.00
650.32	910.00
650.33	906.00
650.35	905.00
650.36	934.00
650.38	924.00
650.40	908.00
650.41	916.00
650.43	917.00
650.44	921.00
650.46	926.00
650.47	944.00
650.49	943.00
650.50	900.00
650.52	906.00
650.53	923.00
650.55	941.00
650.56	934.00
650.58	924.00
650.59	932.00
650.61	929.00
650.62	927.00
650.64	934.00
650.66	921.00
650.67	909.00
650.69	918.00
650.70	923.00
650.72	909.00
650.73	924.00
650.75	944.00
650.76	926.00
650.78	929.00
650.79	932.00
650.81	949.00
650.82	934.00
650.84	927.00
650.85	922.00
650.87	930.00
650.88	946.00
650.90	924.00
650.91	926.00
650.93	919.00
650.95	923.00
650.96	927.00
650.98	931.00
650.99	905.00
651.01	912.00
651.02	915.00
651.04	922.00
651.05	925.00
651.07	900.00
651.08	891.00
651.10	917.00
651.11	914.00
651.13	900.00
651.14	916.00
651.16	904.00
651.17	915.00
651.19	938.00
651.20	896.00
651.22	903.00
651.23	927.00
651.25	929.00
651.26	923.00
651.28	915.00
651.29	899.00
651.31	923.00
651.33	888.00
651.34	906.00
651.36	921.00
651.37	890.00
651.39	880.00
651.40	908.00
651.42	920.00
651.43	916.00
651.45	906.00
651.46	900.00
651.48	938.00
651.49	977.00
651.51	943.00
651.52	935.00
651.54	923.00
651.55	920.00
651.57	909.00
651.58	934.00
651.60	949.00
651.61	900.00
651.63	913.00
651.64	905.00
651.66	924.00
651.67	918.00
651.69	919.00
651.70	923.00
651.72	945.00
651.73	967.00
651.75	919.00
651.76	913.00
651.78	919.00
651.79	907.00
651.81	902.00
651.82	921.00
651.84	903.00
651.85	916.00
651.87	942.00
651.88	933.00
651.90	913.00
651.91	911.00
651.93	925.00
651.94	952.00
651.96	941.00
651.97	937.00
651.99	917.00
652.00	903.00
652.02	930.00
652.04	939.00
652.05	966.00
652.07	1033.00
652.08	937.00
652.10	925.00
652.11	952.00
652.13	926.00
652.14	920.00
652.16	912.00
652.17	921.00
652.19	919.00
652.20	947.00
652.22	933.00
652.23	917.00
652.25	921.00
652.26	932.00
652.28	935.00
652.29	927.00
652.31	933.00
652.32	921.00
652.34	922.00
652.35	915.00
652.37	915.00
652.38	934.00
652.40	926.00
652.41	907.00
652.43	926.00
652.44	934.00
652.46	919.00
652.47	934.00
652.49	918.00
652.50	893.00
652.52	902.00
652.53	911.00
652.55	918.00
652.56	914.00
652.58	908.00
652.59	955.00
652.61	1002.00
652.62	925.00
652.64	911.00
652.65	915.00
652.66	908.00
652.68	932.00
652.69	926.00
652.71	900.00
652.72	905.00
652.74	923.00
652.75	932.00
652.77	936.00
652.78	928.00
652.80	925.00
652.81	922.00
652.83	919.00
652.84	905.00
652.86	895.00
652.87	920.00
652.89	944.00
652.90	940.00
652.92	918.00
652.93	924.00
652.95	921.00
652.96	922.00
652.98	913.00
652.99	915.00
653.01	914.00
653.02	895.00
653.04	910.00
653.05	913.00
653.07	916.00
653.08	911.00
653.10	921.00
653.11	917.00
653.13	913.00
653.14	946.00
653.16	953.00
653.17	921.00
653.19	931.00
653.20	917.00
653.22	932.00
653.23	955.00
653.25	905.00
653.26	891.00
653.28	926.00
653.29	931.00
653.31	911.00
653.32	920.00
653.33	899.00
653.35	897.00
653.36	910.00
653.38	905.00
653.39	900.00
653.41	898.00
653.42	903.00
653.44	909.00
653.45	915.00
653.47	905.00
653.48	915.00
653.50	914.00
653.51	920.00
653.53	929.00
653.54	923.00
653.56	907.00
653.57	922.00
653.59	945.00
653.60	930.00
653.62	908.00
653.63	901.00
653.65	910.00
653.66	933.00
653.68	933.00
653.69	904.00
653.71	880.00
653.72	893.00
653.73	910.00
653.75	921.00
653.76	913.00
653.78	915.00
653.79	925.00
653.81	911.00
653.82	906.00
653.84	926.00
653.85	946.00
653.87	896.00
653.88	907.00
653.90	933.00
653.91	927.00
653.93	951.00
653.94	932.00
653.96	920.00
653.97	896.00
653.99	895.00
654.00	917.00
654.01	919.00
654.03	919.00
654.04	928.00
654.06	925.00
654.07	933.00
654.09	931.00
654.10	928.00
654.12	937.00
654.13	947.00
654.15	924.00
654.16	908.00
654.18	917.00
654.19	899.00
654.21	889.00
654.22	917.00
654.24	920.00
654.25	967.00
654.26	1037.00
654.28	973.00
654.29	955.00
654.31	951.00
654.32	954.00
654.34	935.00
654.35	923.00
654.37	922.00
654.38	915.00
654.40	898.00
654.41	919.00
654.43	924.00
654.44	929.00
654.46	913.00
654.47	913.00
654.48	922.00
654.50	938.00
654.51	932.00
654.53	927.00
654.54	924.00
654.56	938.00
654.57	936.00
654.59	931.00
654.60	925.00
654.62	916.00
654.63	907.00
654.65	917.00
654.66	915.00
654.67	914.00
654.69	935.00
654.70	917.00
654.72	931.00
654.73	916.00
654.75	924.00
654.76	917.00
654.78	933.00
654.79	922.00
654.81	923.00
654.82	938.00
654.84	921.00
654.85	913.00
654.86	913.00
654.88	918.00
654.89	922.00
654.91	919.00
654.92	922.00
654.94	921.00
654.95	908.00
654.97	911.00
654.98	925.00
655.00	920.00
655.01	936.00
655.02	916.00
655.04	901.00
655.05	904.00
655.07	906.00
655.08	919.00
655.10	925.00
655.11	909.00
655.13	904.00
655.14	902.00
655.16	918.00
655.17	895.00
655.18	903.00
655.20	914.00
655.21	936.00
655.23	944.00
655.24	927.00
655.26	926.00
655.27	927.00
655.29	910.00
655.30	915.00
655.32	918.00
655.33	918.00
655.34	924.00
655.36	910.00
655.37	910.00
655.39	897.00
655.40	915.00
655.42	929.00
655.43	940.00
655.45	946.00
655.46	911.00
655.47	911.00
655.49	932.00
655.50	910.00
655.52	916.00
655.53	947.00
655.55	945.00
655.56	961.00
655.58	934.00
655.59	917.00
655.60	897.00
655.62	911.00
655.63	931.00
655.65	916.00
655.66	917.00
655.68	918.00
655.69	941.00
655.71	926.00
655.72	915.00
655.73	914.00
655.75	909.00
655.76	899.00
655.78	932.00
655.79	956.00
655.81	931.00
655.82	912.00
655.84	921.00
655.85	965.00
655.86	934.00
655.88	951.00
655.89	938.00
655.91	911.00
655.92	909.00
655.94	942.00
655.95	922.00
655.97	902.00
655.98	901.00
655.99	933.00
656.01	922.00
656.02	940.00
656.04	940.00
656.05	922.00
656.07	893.00
656.08	911.00
656.09	922.00
656.11	915.00
656.12	937.00
656.14	939.00
656.15	925.00
656.17	942.00
656.18	940.00
656.20	938.00
656.21	923.00
656.22	916.00
656.24	930.00
656.25	940.00
656.27	947.00
656.28	915.00
656.30	933.00
656.31	939.00
656.32	946.00
656.34	936.00
656.35	925.00
656.37	934.00
656.38	914.00
656.40	907.00
656.41	904.00
656.42	900.00
656.44	902.00
656.45	893.00
656.47	915.00
656.48	909.00
656.50	907.00
656.51	922.00
656.52	915.00
656.54	912.00
656.55	912.00
656.57	922.00
656.58	931.00
656.60	931.00
656.61	905.00
656.62	921.00
656.64	917.00
656.65	919.00
656.67	919.00
656.68	926.00
656.70	916.00
656.71	904.00
656.72	933.00
656.74	934.00
656.75	954.00
656.77	921.00
656.78	929.00
656.80	933.00
656.81	949.00
656.82	902.00
656.84	915.00
656.85	927.00
656.87	932.00
656.88	928.00
656.90	916.00
656.91	921.00
656.92	916.00
656.94	922.00
656.95	932.00
656.97	925.00
656.98	950.00
657.00	922.00
657.01	921.00
657.02	899.00
657.04	887.00
657.05	918.00
657.07	950.00
657.08	912.00
657.09	924.00
657.11	905.00
657.12	916.00
657.14	909.00
657.15	905.00
657.17	911.00
657.18	908.00
657.19	877.00
657.21	909.00
657.22	893.00
657.24	902.00
657.25	923.00
657.26	927.00
657.28	912.00
657.29	902.00
657.31	916.00
657.32	920.00
657.34	923.00
657.35	930.00
657.36	945.00
657.38	954.00
657.39	916.00
657.41	934.00
657.42	941.00
657.43	923.00
657.45	920.00
657.46	913.00
657.48	923.00
657.49	915.00
657.51	894.00
657.52	910.00
657.53	904.00
657.55	906.00
657.56	956.00
657.58	946.00
657.59	914.00
657.60	917.00
657.62	922.00
657.63	918.00
657.65	915.00
657.66	913.00
657.67	938.00
657.69	934.00
657.70	909.00
657.72	917.00
657.73	921.00
657.75	934.00
657.76	903.00
657.77	905.00
657.79	905.00
657.80	901.00
657.82	915.00
657.83	923.00
657.84	930.00
657.86	942.00
657.87	907.00
657.89	928.00
657.90	919.00
657.91	921.00
657.93	926.00
657.94	908.00
657.96	915.00
657.97	916.00
657.98	916.00
658.00	939.00
658.01	922.00
658.03	890.00
658.04	909.00
658.05	919.00
658.07	889.00
658.08	905.00
658.10	917.00
658.11	937.00
658.12	957.00
658.14	963.00
658.15	926.00
658.17	945.00
658.18	925.00
658.19	905.00
658.21	886.00
658.22	899.00
658.24	931.00
658.25	927.00
658.26	925.00
658.28	918.00
658.29	900.00
658.31	906.00
658.32	916.00
658.33	921.00
658.35	923.00
658.36	917.00
658.38	909.00
658.39	929.00
658.40	947.00
658.42	921.00
658.43	922.00
658.45	905.00
658.46	895.00
658.47	921.00
658.49	926.00
658.50	942.00
658.52	926.00
658.53	911.00
658.54	909.00
658.56	914.00
658.57	917.00
658.59	929.00
658.60	936.00
658.61	902.00
658.63	908.00
658.64	925.00
658.66	911.00
658.67	913.00
658.68	1004.00
658.70	1122.00
658.71	924.00
658.73	919.00
658.74	922.00
658.75	919.00
658.77	905.00
658.78	932.00
658.79	901.00
658.81	901.00
658.82	917.00
658.84	915.00
658.85	922.00
658.86	912.00
658.88	929.00
658.89	917.00
658.91	918.00
658.92	918.00
658.93	902.00
658.95	910.00
658.96	890.00
658.98	927.00
658.99	903.00
659.00	898.00
659.02	898.00
659.03	918.00
659.04	934.00
659.06	916.00
659.07	912.00
659.09	938.00
659.10	946.00
659.11	917.00
659.13	908.00
659.14	936.00
659.16	937.00
659.17	931.00
659.18	933.00
659.20	911.00
659.21	911.00
659.22	926.00
659.24	964.00
659.25	946.00
659.27	940.00
659.28	954.00
659.29	922.00
659.31	906.00
659.32	922.00
659.33	891.00
659.35	883.00
659.36	912.00
659.38	943.00
659.39	930.00
659.40	905.00
659.42	913.00
659.43	920.00
659.45	920.00
659.46	932.00
659.47	913.00
659.49	933.00
659.50	922.00
659.51	912.00
659.53	922.00
659.54	948.00
659.56	932.00
659.57	934.00
659.58	932.00
659.60	917.00
659.61	926.00
659.62	931.00
659.64	922.00
659.65	907.00
659.67	901.00
659.68	910.00
659.69	919.00
659.71	910.00
659.72	921.00
659.73	941.00
659.75	920.00
659.76	911.00
659.78	919.00
659.79	946.00
659.80	893.00
659.82	899.00
659.83	929.00
659.84	933.00
659.86	921.00
659.87	915.00
659.89	913.00
659.90	922.00
659.91	925.00
659.93	961.00
659.94	931.00
659.95	905.00
659.97	923.00
659.98	926.00
659.99	914.00
660.01	921.00
660.02	937.00
660.04	934.00
660.05	904.00
660.06	922.00
660.08	958.00
660.09	961.00
660.10	899.00
660.12	919.00
660.13	937.00
660.15	926.00
660.16	906.00
660.17	914.00
660.19	926.00
660.20	921.00
660.21	898.00
660.23	914.00
660.24	911.00
660.25	902.00
660.27	918.00
660.28	917.00
660.30	927.00
660.31	921.00
660.32	905.00
660.34	886.00
660.35	889.00
660.36	918.00
660.38	905.00
660.39	926.00
660.40	915.00
660.42	921.00
660.43	914.00
660.45	931.00
660.46	928.00
660.47	917.00
660.49	903.00
660.50	912.00
660.51	916.00
660.53	915.00
660.54	936.00
660.55	957.00
660.57	934.00
660.58	926.00
660.59	928.00
660.61	906.00
660.62	913.00
660.64	922.00
660.65	928.00
660.66	917.00
660.68	924.00
660.69	926.00
660.70	938.00
660.72	911.00
660.73	900.00
660.74	927.00
660.76	919.00
660.77	916.00
660.78	915.00
660.80	924.00
660.81	936.00
660.83	920.00
660.84	912.00
660.85	918.00
660.87	930.00
660.88	922.00
660.89	923.00
660.91	952.00
660.92	948.00
660.93	921.00
660.95	919.00
660.96	910.00
660.97	932.00
660.99	945.00
661.00	910.00
661.01	893.00
661.03	909.00
661.04	925.00
661.06	937.00
661.07	925.00
661.08	916.00
661.10	947.00
661.11	980.00
661.12	911.00
661.14	912.00
661.15	894.00
661.16	921.00
661.18	951.00
661.19	941.00
661.20	947.00
661.22	939.00
661.23	931.00
661.24	915.00
661.26	925.00
661.27	927.00
661.28	939.00
661.30	896.00
661.31	912.00
661.32	906.00
661.34	894.00
661.35	901.00
661.36	922.00
661.38	914.00
661.39	907.00
661.41	916.00
661.42	920.00
661.43	920.00
661.45	926.00
661.46	917.00
661.47	912.00
661.49	922.00
661.50	922.00
661.51	905.00
661.53	936.00
661.54	936.00
661.55	930.00
661.57	931.00
661.58	931.00
661.59	911.00
661.61	918.00
661.62	934.00
661.63	929.00
661.65	926.00
661.66	917.00
661.67	910.00
661.69	916.00
661.70	932.00
661.71	911.00
661.73	943.00
661.74	984.00
661.75	914.00
661.77	922.00
661.78	964.00
661.79	964.00
661.81	909.00
661.82	913.00
661.83	910.00
661.85	912.00
661.86	925.00
661.87	920.00
661.89	926.00
661.90	931.00
661.91	918.00
661.93	893.00
661.94	911.00
661.95	916.00
661.97	945.00
661.98	957.00
661.99	923.00
662.01	917.00
662.02	937.00
662.03	925.00
662.05	918.00
662.06	917.00
662.07	916.00
662.09	910.00
662.10	916.00
662.11	913.00
662.13	907.00
662.14	876.00
662.15	899.00
662.17	918.00
662.18	906.00
662.19	915.00
662.21	916.00
662.22	910.00
662.23	916.00
662.25	901.00
662.26	926.00
662.27	924.00
662.29	907.00
662.30	918.00
662.31	902.00
662.33	899.00
662.34	910.00
662.35	911.00
662.37	909.00
662.38	908.00
662.39	907.00
662.41	920.00
662.42	914.00
662.43	932.00
662.45	923.00
662.46	903.00
662.47	899.00
662.49	909.00
662.50	906.00
662.51	919.00
662.52	940.00
662.54	909.00
662.55	932.00
662.56	921.00
662.58	909.00
662.59	941.00
662.60	946.00
662.62	933.00
662.63	939.00
662.64	932.00
662.66	916.00
662.67	929.00
662.68	948.00
662.70	925.00
662.71	928.00
662.72	927.00
662.74	921.00
662.75	923.00
662.76	913.00
662.78	905.00
662.79	928.00
662.80	945.00
662.82	964.00
662.83	930.00
662.84	899.00
662.85	925.00
662.87	926.00
662.88	903.00
662.89	912.00
662.91	927.00
662.92	946.00
662.93	915.00
662.95	919.00
662.96	923.00
662.97	913.00
662.99	898.00
663.00	894.00
663.01	921.00
663.03	932.00
663.04	942.00
663.05	925.00
663.06	934.00
663.08	932.00
663.09	935.00
663.10	910.00
663.12	914.00
663.13	920.00
663.14	918.00
663.16	893.00
663.17	904.00
663.18	939.00
663.20	942.00
663.21	937.00
663.22	932.00
663.24	941.00
663.25	904.00
663.26	908.00
663.27	908.00
663.29	934.00
663.30	931.00
663.31	934.00
663.33	923.00
663.34	945.00
663.35	941.00
663.37	913.00
663.38	918.00
663.39	935.00
663.41	906.00
663.42	894.00
663.43	912.00
663.44	922.00
663.46	910.00
663.47	915.00
663.48	915.00
663.50	927.00
663.51	907.00
663.52	918.00
663.54	925.00
663.55	907.00
663.56	902.00
663.57	894.00
663.59	881.00
663.60	898.00
663.61	912.00
663.63	933.00
663.64	919.00
663.65	925.00
663.67	906.00
663.68	898.00
663.69	941.00
663.71	952.00
663.72	914.00
663.73	921.00
663.74	920.00
663.76	949.00
663.77	923.00
663.78	924.00
663.80	946.00
663.81	936.00
663.82	923.00
663.84	901.00
663.85	902.00
663.86	909.00
663.87	899.00
663.89	906.00
663.90	922.00
663.91	926.00
663.93	921.00
663.94	907.00
663.95	945.00
663.96	985.00
663.98	930.00
663.99	897.00
664.00	910.00
664.02	942.00
664.03	940.00
664.04	922.00
664.06	907.00
664.07	925.00
664.08	932.00
664.09	924.00
664.11	930.00
664.12	937.00
664.13	919.00
664.15	916.00
664.16	914.00
664.17	897.00
664.18	919.00
664.20	923.00
664.21	936.00
664.22	929.00
664.24	928.00
664.25	934.00
664.26	926.00
664.27	914.00
664.29	925.00
664.30	932.00
664.31	927.00
664.33	929.00
664.34	908.00
664.35	918.00
664.37	917.00
664.38	914.00
664.39	920.00
664.40	915.00
664.42	930.00
664.43	912.00
664.44	909.00
664.46	911.00
664.47	913.00
664.48	919.00
664.49	930.00
664.51	905.00
664.52	898.00
664.53	921.00
664.55	913.00
664.56	909.00
664.57	907.00
664.58	921.00
664.60	903.00
664.61	923.00
664.62	936.00
664.64	932.00
664.65	931.00
664.66	916.00
664.67	913.00
664.69	919.00
664.70	917.00
664.71	929.00
664.72	916.00
664.74	910.00
664.75	927.00
664.76	933.00
664.78	921.00
664.79	938.00
664.80	929.00
664.81	913.00
664.83	911.00
664.84	897.00
664.85	897.00
664.87	923.00
664.88	915.00
664.89	911.00
664.90	924.00
664.92	934.00
664.93	938.00
664.94	945.00
664.96	937.00
664.97	937.00
664.98	951.00
664.99	907.00
665.01	917.00
665.02	937.00
665.03	917.00
665.04	925.00
665.06	950.00
665.07	907.00
665.08	903.00
665.10	905.00
665.11	928.00
665.12	931.00
665.13	916.00
665.15	933.00
665.16	930.00
665.17	933.00
665.18	921.00
665.20	928.00
665.21	922.00
665.22	918.00
665.24	956.00
665.25	1010.00
665.26	926.00
665.27	899.00
665.29	935.00
665.30	943.00
665.31	912.00
665.32	936.00
665.34	927.00
665.35	921.00
665.36	907.00
665.38	902.00
665.39	927.00
665.40	939.00
665.41	934.00
665.43	934.00
665.44	910.00
665.45	912.00
665.46	919.00
665.48	936.00
665.49	948.00
665.50	938.00
665.51	931.00
665.53	948.00
665.54	911.00
665.55	892.00
665.57	915.00
665.58	912.00
665.59	912.00
665.60	929.00
665.62	938.00
665.63	939.00
665.64	923.00
665.65	904.00
665.67	911.00
665.68	920.00
665.69	934.00
665.70	932.00
665.72	901.00
665.73	903.00
665.74	920.00
665.75	907.00
665.77	920.00
665.78	921.00
665.79	942.00
665.80	933.00
665.82	929.00
665.83	890.00
665.84	929.00
665.86	915.00
665.87	914.00
665.88	927.00
665.89	932.00
665.91	903.00
665.92	907.00
665.93	896.00
665.94	946.00
665.96	929.00
665.97	910.00
665.98	897.00
665.99	885.00
666.01	877.00
666.02	906.00
666.03	934.00
666.04	936.00
666.06	929.00
666.07	929.00
666.08	923.00
666.09	909.00
666.11	919.00
666.12	923.00
666.13	910.00
666.14	904.00
666.16	919.00
666.17	926.00
666.18	918.00
666.19	922.00
666.21	930.00
666.22	940.00
666.23	928.00
666.24	928.00
666.26	945.00
666.27	935.00
666.28	915.00
666.29	916.00
666.31	927.00
666.32	935.00
666.33	924.00
666.34	918.00
666.36	949.00
666.37	939.00
666.38	922.00
666.39	951.00
666.41	922.00
666.42	932.00
666.43	923.00
666.44	933.00
666.46	927.00
666.47	913.00
666.48	919.00
666.49	937.00
666.51	938.00
666.52	904.00
666.53	904.00
666.54	921.00
666.56	929.00
666.57	916.00
666.58	937.00
666.59	936.00
666.61	933.00
666.62	923.00
666.63	931.00
666.64	933.00
666.66	923.00
666.67	937.00
666.68	920.00
666.69	935.00
666.71	934.00
666.72	908.00
666.73	928.00
666.74	917.00
666.76	934.00
666.77	926.00
666.78	903.00
666.79	917.00
666.81	934.00
666.82	924.00
666.83	936.00
666.84	926.00
666.85	910.00
666.87	912.00
666.88	901.00
666.89	904.00
666.90	927.00
666.92	938.00
666.93	921.00
666.94	940.00
666.95	941.00
666.97	930.00
666.98	931.00
666.99	914.00
667.00	937.00
667.02	935.00
667.03	932.00
667.04	906.00
667.05	922.00
667.07	912.00
667.08	902.00
667.09	934.00
667.10	933.00
667.11	900.00
667.13	910.00
667.14	921.00
667.15	934.00
667.16	916.00
667.18	912.00
667.19	904.00
667.20	897.00
667.21	919.00
667.23	921.00
667.24	926.00
667.25	925.00
667.26	939.00
667.27	923.00
667.29	926.00
667.30	939.00
667.31	943.00
667.32	944.00
667.34	926.00
667.35	929.00
667.36	930.00
667.37	912.00
667.39	908.00
667.40	918.00
667.41	900.00
667.42	952.00
667.43	939.00
667.45	913.00
667.46	918.00
667.47	930.00
667.48	942.00
667.50	901.00
667.51	893.00
667.52	916.00
667.53	913.00
667.55	918.00
667.56	931.00
667.57	924.00
667.58	923.00
667.59	927.00
667.61	941.00
667.62	916.00
667.63	949.00
667.64	938.00
667.66	915.00
667.67	921.00
667.68	927.00
667.69	921.00
667.70	910.00
667.72	915.00
667.73	924.00
667.74	921.00
667.75	942.00
667.77	932.00
667.78	913.00
667.79	927.00
667.80	921.00
667.81	905.00
667.83	929.00
667.84	935.00
667.85	890.00
667.86	900.00
667.88	906.00
667.89	924.00
667.90	916.00
667.91	906.00
667.92	901.00
667.94	915.00
667.95	935.00
667.96	942.00
667.97	918.00
667.98	919.00
668.00	913.00
668.01	919.00
668.02	938.00
668.03	942.00
668.05	929.00
668.06	904.00
668.07	917.00
668.08	939.00
668.09	954.00
668.11	931.00
668.12	940.00
668.13	933.00
668.14	923.00
668.16	932.00
668.17	930.00
668.18	922.00
668.19	917.00
668.20	924.00
668.22	924.00
668.23	932.00
668.24	934.00
668.25	946.00
668.26	948.00
668.28	917.00
668.29	930.00
668.30	933.00
668.31	923.00
668.32	934.00
668.34	911.00
668.35	909.00
668.36	946.00
668.37	948.00
668.39	926.00
668.40	915.00
668.41	904.00
668.42	913.00
668.43	926.00
668.45	925.00
668.46	938.00
668.47	915.00
668.48	920.00
668.49	922.00
668.51	939.00
668.52	924.00
668.53	915.00
668.54	907.00
668.55	915.00
668.57	926.00
668.58	921.00
668.59	945.00
668.60	917.00
668.61	915.00
668.63	918.00
668.64	932.00
668.65	930.00
668.66	932.00
668.67	896.00
668.69	920.00
668.70	945.00
668.71	922.00
668.72	924.00
668.73	919.00
668.75	923.00
668.76	923.00
668.77	900.00
668.78	893.00
668.79	909.00
668.81	929.00
668.82	921.00
668.83	927.00
668.84	909.00
668.85	926.00
668.87	899.00
668.88	895.00
668.89	933.00
668.90	942.00
668.91	922.00
668.93	913.00
668.94	921.00
668.95	936.00
668.96	927.00
668.97	917.00
668.99	932.00
669.00	931.00
669.01	906.00
669.02	921.00
669.03	941.00
669.05	937.00
669.06	939.00
669.07	936.00
669.08	924.00
669.09	918.00
669.11	908.00
669.12	926.00
669.13	926.00
669.14	929.00
669.15	936.00
669.17	920.00
669.18	913.00
669.19	902.00
669.20	913.00
669.21	933.00
669.23	923.00
669.24	914.00
669.25	933.00
669.26	915.00
669.27	928.00
669.29	925.00
669.30	908.00
669.31	919.00
669.32	936.00
669.33	957.00
669.34	917.00
669.36	893.00
669.37	884.00
669.38	914.00
669.39	907.00
669.40	908.00
669.42	911.00
669.43	901.00
669.44	897.00
669.45	915.00
669.46	915.00
669.48	914.00
669.49	898.00
669.50	908.00
669.51	921.00
669.52	923.00
669.53	906.00
669.55	904.00
669.56	915.00
669.57	913.00
669.58	904.00
669.59	905.00
669.61	914.00
669.62	904.00
669.63	908.00
669.64	913.00
669.65	901.00
669.66	918.00
669.68	926.00
669.69	914.00
669.70	920.00
669.71	941.00
669.72	926.00
669.74	919.00
669.75	921.00
669.76	918.00
669.77	927.00
669.78	926.00
669.79	914.00
669.81	898.00
669.82	899.00
669.83	916.00
669.84	918.00
669.85	909.00
669.87	928.00
669.88	926.00
669.89	943.00
669.90	936.00
669.91	922.00
669.92	942.00
669.94	952.00
669.95	935.00
669.96	921.00
669.97	906.00
669.98	908.00
669.99	929.00
670.01	924.00
670.02	921.00
670.03	924.00
670.04	913.00
670.05	916.00
670.07	901.00
670.08	904.00
670.09	913.00
670.10	929.00
670.11	924.00
670.12	926.00
670.14	935.00
670.15	909.00
670.16	908.00
670.17	925.00
670.18	910.00
670.19	916.00
670.21	928.00
670.22	927.00
670.23	929.00
670.24	913.00
670.25	927.00
670.26	952.00
670.28	933.00
670.29	921.00
670.30	924.00
670.31	924.00
670.32	907.00
670.33	900.00
670.35	913.00
670.36	927.00
670.37	926.00
670.38	909.00
670.39	902.00
670.40	920.00
670.42	897.00
670.43	910.00
670.44	913.00
670.45	926.00
670.46	916.00
670.47	903.00
670.49	908.00
670.50	924.00
670.51	909.00
670.52	904.00
670.53	930.00
670.54	927.00
670.56	917.00
670.57	926.00
670.58	916.00
670.59	899.00
670.60	913.00
670.61	940.00
670.63	918.00
670.64	916.00
670.65	931.00
670.66	898.00
670.67	886.00
670.68	909.00
670.70	928.00
670.71	938.00
670.72	938.00
670.73	931.00
670.74	923.00
670.75	921.00
670.77	932.00
670.78	926.00
670.79	920.00
670.80	895.00
670.81	903.00
670.82	906.00
670.84	923.00
670.85	912.00
670.86	903.00
670.87	900.00
670.88	907.00
670.89	901.00
670.90	893.00
670.92	896.00
670.93	913.00
670.94	930.00
670.95	933.00
670.96	916.00
670.97	886.00
670.99	890.00
671.00	903.00
671.01	904.00
671.02	905.00
671.03	883.00
671.04	900.00
671.05	932.00
671.07	918.00
671.08	914.00
671.09	911.00
671.10	939.00
671.11	918.00
671.12	909.00
671.14	926.00
671.15	917.00
671.16	919.00
671.17	934.00
671.18	937.00
671.19	931.00
671.20	920.00
671.22	912.00
671.23	903.00
671.24	901.00
671.25	904.00
671.26	905.00
671.27	908.00
671.28	912.00
671.30	919.00
671.31	913.00
671.32	913.00
671.33	907.00
671.34	916.00
671.35	933.00
671.37	915.00
671.38	900.00
671.39	882.00
671.40	900.00
671.41	917.00
671.42	897.00
671.43	926.00
671.45	929.00
671.46	916.00
671.47	941.00
671.48	929.00
671.49	914.00
671.50	930.00
671.51	919.00
671.53	924.00
671.54	911.00
671.55	897.00
671.56	926.00
671.57	922.00
671.58	909.00
671.59	926.00
671.61	942.00
671.62	944.00
671.63	912.00
671.64	918.00
671.65	918.00
671.66	905.00
671.67	904.00
671.69	905.00
671.70	889.00
671.71	908.00
671.72	910.00
671.73	909.00
671.74	923.00
671.75	913.00
671.77	906.00
671.78	911.00
671.79	924.00
671.80	935.00
671.81	942.00
671.82	955.00
671.83	910.00
671.84	914.00
671.86	917.00
671.87	913.00
671.88	939.00
671.89	965.00
671.90	916.00
671.91	894.00
671.92	890.00
671.94	910.00
671.95	904.00
671.96	902.00
671.97	930.00
671.98	922.00
671.99	913.00
672.00	900.00
672.01	915.00
672.03	910.00
672.04	898.00
672.05	910.00
672.06	915.00
672.07	906.00
672.08	907.00
672.09	908.00
672.11	937.00
672.12	961.00
672.13	928.00
672.14	916.00
672.15	910.00
672.16	908.00
672.17	922.00
672.18	920.00
672.20	930.00
672.21	938.00
672.22	947.00
672.23	939.00
672.24	939.00
672.25	921.00
672.26	930.00
672.27	922.00
672.29	936.00
672.30	933.00
672.31	916.00
672.32	908.00
672.33	917.00
672.34	905.00
672.35	883.00
672.36	889.00
672.38	910.00
672.39	902.00
672.40	906.00
672.41	912.00
672.42	945.00
672.43	958.00
672.44	930.00
672.45	922.00
672.47	920.00
672.48	909.00
672.49	926.00
672.50	919.00
672.51	919.00
672.52	923.00
672.53	934.00
672.54	913.00
672.56	932.00
672.57	925.00
672.58	915.00
672.59	909.00
672.60	910.00
672.61	915.00
672.62	906.00
672.63	915.00
672.65	914.00
672.66	915.00
672.67	897.00
672.68	910.00
672.69	896.00
672.70	885.00
672.71	913.00
672.72	907.00
672.73	899.00
672.75	915.00
672.76	902.00
672.77	920.00
672.78	943.00
672.79	921.00
672.80	900.00
672.81	921.00
672.82	929.00
672.84	935.00
672.85	921.00
672.86	916.00
672.87	915.00
672.88	916.00
672.89	906.00
672.90	920.00
672.91	914.00
672.92	892.00
672.94	913.00
672.95	931.00
672.96	924.00
672.97	907.00
672.98	923.00
672.99	931.00
673.00	939.00
673.01	926.00
673.02	906.00
673.04	906.00
673.05	929.00
673.06	896.00
673.07	914.00
673.08	898.00
673.09	910.00
673.10	893.00
673.11	918.00
673.12	941.00
673.14	929.00
673.15	913.00
673.16	911.00
673.17	923.00
673.18	924.00
673.19	910.00
673.20	914.00
673.21	910.00
673.22	932.00
673.24	933.00
673.25	921.00
673.26	916.00
673.27	923.00
673.28	932.00
673.29	929.00
673.30	929.00
673.31	925.00
673.32	915.00
673.33	913.00
673.35	927.00
673.36	916.00
673.37	906.00
673.38	916.00
673.39	920.00
673.40	935.00
673.41	922.00
673.42	925.00
673.43	910.00
673.44	920.00
673.46	908.00
673.47	899.00
673.48	927.00
673.49	930.00
673.50	915.00
673.51	907.00
673.52	923.00
673.53	958.00
673.54	933.00
673.55	899.00
673.57	927.00
673.58	918.00
673.59	912.00
673.60	935.00
673.61	919.00
673.62	933.00
673.63	963.00
673.64	930.00
673.65	919.00
673.66	918.00
673.68	904.00
673.69	910.00
673.70	902.00
673.71	920.00
673.72	914.00
673.73	931.00
673.74	916.00
673.75	944.00
673.76	961.00
673.77	913.00
673.79	914.00
673.80	918.00
673.81	921.00
673.82	909.00
673.83	907.00
673.84	950.00
673.85	931.00
673.86	920.00
673.87	907.00
673.88	916.00
673.89	930.00
673.91	932.00
673.92	927.00
673.93	916.00
673.94	918.00
673.95	902.00
673.96	913.00
673.97	932.00
673.98	921.00
673.99	914.00
674.00	930.00
674.01	930.00
674.03	909.00
674.04	895.00
674.05	910.00
674.06	924.00
674.07	930.00
674.08	922.00
674.09	950.00
674.10	912.00
674.11	885.00
674.12	930.00
674.13	923.00
674.14	916.00
674.16	908.00
674.17	910.00
674.18	918.00
674.19	905.00
674.20	906.00
674.21	904.00
674.22	893.00
674.23	912.00
674.24	890.00
674.25	917.00
674.26	951.00
674.27	930.00
674.29	886.00
674.30	892.00
674.31	905.00
674.32	921.00
674.33	920.00
674.34	925.00
674.35	922.00
674.36	925.00
674.37	940.00
674.38	897.00
674.39	894.00
674.40	935.00
674.42	924.00
674.43	910.00
674.44	911.00
674.45	907.00
674.46	920.00
674.47	930.00
674.48	916.00
674.49	905.00
674.50	909.00
674.51	889.00
674.52	888.00
674.53	882.00
674.54	892.00
674.56	915.00
674.57	930.00
674.58	937.00
674.59	934.00
674.60	910.00
674.61	911.00
674.62	917.00
674.63	921.00
674.64	894.00
674.65	906.00
674.66	894.00
674.67	906.00
674.68	906.00
674.70	936.00
674.71	944.00
674.72	910.00
674.73	894.00
674.74	907.00
674.75	913.00
674.76	904.00
674.77	912.00
674.78	895.00
674.79	910.00
674.80	918.00
674.81	917.00
674.82	932.00
674.83	923.00
674.85	911.00
674.86	913.00
674.87	908.00
674.88	893.00
674.89	898.00
674.90	904.00
674.91	920.00
674.92	915.00
674.93	914.00
674.94	901.00
674.95	917.00
674.96	948.00
674.97	934.00
674.98	932.00
674.99	927.00
675.01	909.00
675.02	911.00
675.03	897.00
675.04	892.00
675.05	908.00
675.06	935.00
675.07	948.00
675.08	942.00
675.09	900.00
675.10	903.00
675.11	914.00
675.12	936.00
675.13	931.00
675.14	927.00
675.15	911.00
675.17	902.00
675.18	918.00
675.19	932.00
675.20	930.00
675.21	924.00
675.22	917.00
675.23	914.00
675.24	914.00
675.25	910.00
675.26	923.00
675.27	925.00
675.28	916.00
675.29	912.00
675.30	908.00
675.31	917.00
675.32	917.00
675.33	898.00
675.35	911.00
675.36	902.00
675.37	877.00
675.38	885.00
675.39	906.00
675.40	916.00
675.41	920.00
675.42	928.00
675.43	939.00
675.44	924.00
675.45	904.00
675.46	917.00
675.47	941.00
675.48	937.00
675.49	928.00
675.50	929.00
675.51	926.00
675.52	918.00
675.54	899.00
675.55	902.00
675.56	920.00
675.57	916.00
675.58	893.00
675.59	890.00
675.60	926.00
675.61	917.00
675.62	901.00
675.63	897.00
675.64	886.00
675.65	908.00
675.66	932.00
675.67	911.00
675.68	918.00
675.69	915.00
675.70	904.00
675.71	938.00
675.72	953.00
675.74	930.00
675.75	926.00
675.76	898.00
675.77	900.00
675.78	909.00
675.79	917.00
675.80	916.00
675.81	940.00
675.82	938.00
675.83	910.00
675.84	917.00
675.85	925.00
675.86	938.00
675.87	934.00
675.88	932.00
675.89	929.00
675.90	936.00
675.91	924.00
675.92	926.00
675.93	927.00
675.94	929.00
675.95	923.00
675.97	910.00
675.98	929.00
675.99	953.00
676.00	914.00
676.01	927.00
676.02	940.00
676.03	917.00
676.04	902.00
676.05	909.00
676.06	911.00
676.07	925.00
676.08	935.00
676.09	923.00
676.10	904.00
676.11	915.00
676.12	925.00
676.13	919.00
676.14	936.00
676.15	911.00
676.16	899.00
676.17	906.00
676.18	885.00
676.19	910.00
676.20	913.00
676.22	915.00
676.23	924.00
676.24	943.00
676.25	927.00
676.26	902.00
676.27	896.00
676.28	901.00
676.29	928.00
676.30	928.00
676.31	927.00
676.32	897.00
676.33	916.00
676.34	930.00
676.35	938.00
676.36	919.00
676.37	907.00
676.38	897.00
676.39	903.00
676.40	922.00
676.41	936.00
676.42	920.00
676.43	932.00
676.44	945.00
676.45	922.00
676.46	902.00
676.47	908.00
676.48	929.00
676.49	921.00
676.50	932.00
676.52	930.00
676.53	942.00
676.54	933.00
676.55	926.00
676.56	926.00
676.57	909.00
676.58	905.00
676.59	921.00
676.60	929.00
676.61	940.00
676.62	911.00
676.63	902.00
676.64	907.00
676.65	910.00
676.66	907.00
676.67	893.00
676.68	911.00
676.69	940.00
676.70	944.00
676.71	922.00
676.72	947.00
676.73	933.00
676.74	919.00
676.75	923.00
676.76	935.00
676.77	910.00
676.78	894.00
676.79	925.00
676.80	918.00
676.81	886.00
676.82	882.00
676.83	919.00
676.84	942.00
676.85	904.00
676.86	922.00
676.87	909.00
676.88	906.00
676.89	918.00
676.90	880.00
676.92	896.00
676.93	898.00
676.94	916.00
676.95	899.00
676.96	886.00
676.97	881.00
676.98	890.00
676.99	904.00
677.00	906.00
677.01	921.00
677.02	936.00
677.03	934.00
677.04	920.00
677.05	914.00
677.06	912.00
677.07	927.00
677.08	920.00
677.09	914.00
677.10	919.00
677.11	916.00
677.12	920.00
677.13	938.00
677.14	934.00
677.15	915.00
677.16	902.00
677.17	913.00
677.18	929.00
677.19	919.00
677.20	892.00
677.21	894.00
677.22	905.00
677.23	903.00
677.24	893.00
677.25	907.00
677.26	934.00
677.27	933.00
677.28	918.00
677.29	929.00
677.30	921.00
677.31	933.00
677.32	958.00
677.33	921.00
677.34	913.00
677.35	905.00
677.36	927.00
677.37	939.00
677.38	931.00
677.39	928.00
677.40	929.00
677.41	917.00
677.42	913.00
677.43	909.00
677.44	914.00
677.45	916.00
677.46	910.00
677.47	900.00
677.48	894.00
677.49	910.00
677.50	902.00
677.51	918.00
677.52	919.00
677.53	924.00
677.54	915.00
677.55	908.00
677.56	916.00
677.57	944.00
677.58	934.00
677.59	896.00
677.60	892.00
677.61	913.00
677.62	923.00
677.63	918.00
677.64	938.00
677.65	954.00
677.66	924.00
677.67	912.00
677.68	924.00
677.69	929.00
677.70	913.00
677.71	919.00
677.72	914.00
677.73	920.00
677.74	884.00
677.75	894.00
677.76	906.00
677.77	917.00
677.78	924.00
677.79	900.00
677.80	917.00
677.81	908.00
677.82	901.00
677.83	915.00
677.84	903.00
677.85	928.00
677.86	936.00
677.87	925.00
677.88	907.00
677.89	926.00
677.90	919.00
677.91	923.00
677.92	922.00
677.93	956.00
677.94	952.00
677.95	903.00
677.96	908.00
677.97	909.00
677.98	903.00
677.99	912.00
678.00	943.00
678.01	918.00
678.02	922.00
678.03	921.00
678.04	918.00
678.05	901.00
678.06	915.00
678.07	921.00
678.08	923.00
678.09	948.00
678.10	924.00
678.11	898.00
678.12	913.00
678.13	923.00
678.14	903.00
678.15	926.00
678.16	920.00
678.17	902.00
678.18	915.00
678.19	907.00
678.20	901.00
678.21	893.00
678.22	913.00
678.23	924.00
678.24	918.00
678.25	928.00
678.26	942.00
678.27	923.00
678.28	917.00
678.29	930.00
678.30	925.00
678.31	912.00
678.32	917.00
678.33	931.00
678.34	917.00
678.35	896.00
678.36	906.00
678.37	918.00
678.38	921.00
678.39	903.00
678.40	909.00
678.41	908.00
678.42	905.00
678.43	887.00
678.44	909.00
678.45	910.00
678.46	932.00
678.47	929.00
678.48	909.00
678.49	914.00
678.50	949.00
678.51	936.00
678.52	924.00
678.53	946.00
678.54	915.00
678.55	905.00
678.56	890.00
678.57	897.00
678.58	901.00
678.59	914.00
678.60	929.00
678.61	921.00
678.62	912.00
678.63	923.00
678.64	953.00
678.64	925.00
678.65	914.00
678.66	928.00
678.67	928.00
678.68	944.00
678.69	923.00
678.70	920.00
678.71	927.00
678.72	920.00
678.73	907.00
678.74	905.00
678.75	905.00
678.76	917.00
678.77	932.00
678.78	913.00
678.79	908.00
678.80	897.00
678.81	906.00
678.82	895.00
678.83	912.00
678.84	923.00
678.85	921.00
678.86	905.00
678.87	920.00
678.88	941.00
678.89	933.00
678.90	906.00
678.91	913.00
678.92	902.00
678.93	914.00
678.94	901.00
678.95	924.00
678.96	922.00
678.97	937.00
678.98	925.00
678.99	925.00
679.00	902.00
679.01	906.00
679.02	894.00
679.02	901.00
679.03	914.00
679.04	924.00
679.05	921.00
679.06	903.00
679.07	898.00
679.08	910.00
679.09	914.00
679.10	909.00
679.11	921.00
679.12	914.00
679.13	919.00
679.14	921.00
679.15	925.00
679.16	921.00
679.17	894.00
679.18	929.00
679.19	937.00
679.20	896.00
679.21	917.00
679.22	944.00
679.23	924.00
679.24	923.00
679.25	933.00
679.26	926.00
679.27	928.00
679.28	920.00
679.29	897.00
679.30	915.00
679.30	912.00
679.31	904.00
679.32	894.00
679.33	897.00
679.34	924.00
679.35	925.00
679.36	899.00
679.37	925.00
679.38	950.00
679.39	912.00
679.40	937.00
679.41	918.00
679.42	909.00
679.43	909.00
679.44	900.00
679.45	923.00
679.46	952.00
679.47	916.00
679.48	893.00
679.49	908.00
679.50	924.00
679.51	917.00
679.52	899.00
679.53	916.00
679.53	944.00
679.54	927.00
679.55	907.00
679.56	903.00
679.57	927.00
679.58	901.00
679.59	900.00
679.60	921.00
679.61	946.00
679.62	921.00
679.63	903.00
679.64	907.00
679.65	940.00
679.66	924.00
679.67	894.00
679.68	915.00
679.69	945.00
679.70	940.00
679.71	928.00
679.72	936.00
679.73	947.00
679.74	926.00
679.74	898.00
679.75	906.00
679.76	934.00
679.77	934.00
679.78	915.00
679.79	920.00
679.80	936.00
679.81	921.00
679.82	901.00
679.83	924.00
679.84	914.00
679.85	941.00
679.86	929.00
679.87	903.00
679.88	920.00
679.89	883.00
679.90	906.00
679.91	915.00
679.92	934.00
679.92	919.00
679.93	921.00
679.94	933.00
679.95	927.00
679.96	924.00
679.97	909.00
679.98	913.00
679.99	923.00
680.00	928.00
680.01	903.00
680.02	929.00
680.03	916.00
680.04	946.00
680.05	901.00
680.06	902.00
680.07	920.00
680.08	908.00
680.09	897.00
680.09	916.00
680.10	915.00
680.11	905.00
680.12	915.00
680.13	923.00
680.14	947.00
680.15	933.00
680.16	915.00
680.17	925.00
680.18	921.00
680.19	921.00
680.20	900.00
680.21	901.00
680.22	908.00
>>>>>End Processed Spectral Data<<<<<
