SpectraSuite Data File
++++++++++++++++++++++++++++++++++++
Date: Mon Jul 03 10:13:29 CDT 2017
User: jrlab
Dark Spectrum Present: No
Reference Spectrum Present: No
Number of Sampled Component Spectra: 1
Spectrometers: HR4C2500
Integration Time (usec): 100000 (HR4C2500)
Spectra Averaged: 1 (HR4C2500)
Boxcar Smoothing: 0 (HR4C2500)
Correct for Electrical Dark: No (HR4C2500)
Strobe/Lamp Enabled: No (HR4C2500)
Correct for Detector Non-linearity: No (HR4C2500)
Correct for Stray Light: Yes (HR4C2500)
Number of Pixels in Processed Spectrum: 3648
>>>>>Begin Processed Spectral Data<<<<<
629.67	840.00
629.68	840.00
629.70	840.00
629.72	828.00
629.74	854.00
629.76	907.00
629.78	921.00
629.79	924.00
629.81	904.00
629.83	904.00
629.85	941.00
629.87	935.00
629.89	930.00
629.90	894.00
629.92	904.00
629.94	908.00
629.96	920.00
629.98	908.00
630.00	904.00
630.01	946.00
630.03	927.00
630.05	936.00
630.07	924.00
630.09	939.00
630.11	924.00
630.12	917.00
630.14	930.00
630.16	897.00
630.18	909.00
630.20	922.00
630.22	956.00
630.23	1034.00
630.25	972.00
630.27	950.00
630.29	933.00
630.31	916.00
630.33	917.00
630.34	938.00
630.36	947.00
630.38	941.00
630.40	915.00
630.42	927.00
630.43	925.00
630.45	934.00
630.47	944.00
630.49	944.00
630.51	946.00
630.53	932.00
630.54	952.00
630.56	949.00
630.58	935.00
630.60	937.00
630.62	932.00
630.63	934.00
630.65	935.00
630.67	932.00
630.69	914.00
630.71	939.00
630.73	947.00
630.74	930.00
630.76	917.00
630.78	925.00
630.80	941.00
630.82	951.00
630.84	950.00
630.85	930.00
630.87	923.00
630.89	929.00
630.91	921.00
630.93	899.00
630.94	935.00
630.96	962.00
630.98	985.00
631.00	930.00
631.02	927.00
631.03	931.00
631.05	912.00
631.07	941.00
631.09	951.00
631.11	928.00
631.13	942.00
631.14	944.00
631.16	953.00
631.18	931.00
631.20	927.00
631.22	922.00
631.23	908.00
631.25	923.00
631.27	916.00
631.29	929.00
631.31	944.00
631.33	916.00
631.34	932.00
631.36	936.00
631.38	951.00
631.40	933.00
631.42	918.00
631.43	915.00
631.45	924.00
631.47	901.00
631.49	920.00
631.51	928.00
631.52	909.00
631.54	929.00
631.56	930.00
631.58	930.00
631.60	921.00
631.61	888.00
631.63	898.00
631.65	933.00
631.67	912.00
631.69	934.00
631.70	943.00
631.72	927.00
631.74	919.00
631.76	923.00
631.78	908.00
631.80	925.00
631.81	921.00
631.83	912.00
631.85	947.00
631.87	940.00
631.89	924.00
631.90	929.00
631.92	911.00
631.94	924.00
631.96	931.00
631.98	933.00
631.99	922.00
632.01	919.00
632.03	922.00
632.05	933.00
632.07	931.00
632.08	935.00
632.10	914.00
632.12	899.00
632.14	922.00
632.16	934.00
632.17	907.00
632.19	909.00
632.21	933.00
632.23	914.00
632.25	925.00
632.26	938.00
632.28	945.00
632.30	915.00
632.32	923.00
632.34	923.00
632.35	918.00
632.37	921.00
632.39	923.00
632.41	924.00
632.43	909.00
632.44	939.00
632.46	932.00
632.48	921.00
632.50	919.00
632.52	914.00
632.53	933.00
632.55	929.00
632.57	922.00
632.59	907.00
632.61	921.00
632.62	923.00
632.64	924.00
632.66	898.00
632.68	907.00
632.69	922.00
632.71	922.00
632.73	920.00
632.75	931.00
632.77	928.00
632.78	931.00
632.80	941.00
632.82	952.00
632.84	925.00
632.86	933.00
632.87	943.00
632.89	942.00
632.91	928.00
632.93	927.00
632.95	930.00
632.96	943.00
632.98	940.00
633.00	930.00
633.02	908.00
633.03	922.00
633.05	923.00
633.07	932.00
633.09	925.00
633.11	924.00
633.12	938.00
633.14	928.00
633.16	938.00
633.18	914.00
633.20	931.00
633.21	935.00
633.23	939.00
633.25	908.00
633.27	922.00
633.28	926.00
633.30	906.00
633.32	901.00
633.34	939.00
633.36	958.00
633.37	933.00
633.39	918.00
633.41	915.00
633.43	932.00
633.45	918.00
633.46	905.00
633.48	911.00
633.50	910.00
633.52	916.00
633.53	913.00
633.55	914.00
633.57	912.00
633.59	902.00
633.61	899.00
633.62	920.00
633.64	926.00
633.66	896.00
633.68	907.00
633.69	922.00
633.71	936.00
633.73	942.00
633.75	911.00
633.77	920.00
633.78	924.00
633.80	922.00
633.82	919.00
633.84	916.00
633.85	884.00
633.87	892.00
633.89	917.00
633.91	925.00
633.93	913.00
633.94	899.00
633.96	915.00
633.98	918.00
634.00	886.00
634.01	914.00
634.03	917.00
634.05	915.00
634.07	916.00
634.09	941.00
634.10	938.00
634.12	930.00
634.14	941.00
634.16	939.00
634.17	925.00
634.19	914.00
634.21	910.00
634.23	926.00
634.25	930.00
634.26	918.00
634.28	930.00
634.30	920.00
634.32	936.00
634.33	925.00
634.35	914.00
634.37	907.00
634.39	923.00
634.40	924.00
634.42	901.00
634.44	930.00
634.46	910.00
634.48	923.00
634.49	946.00
634.51	921.00
634.53	923.00
634.55	927.00
634.56	918.00
634.58	898.00
634.60	919.00
634.62	933.00
634.63	948.00
634.65	928.00
634.67	914.00
634.69	925.00
634.70	923.00
634.72	915.00
634.74	935.00
634.76	928.00
634.78	917.00
634.79	935.00
634.81	954.00
634.83	934.00
634.85	904.00
634.86	896.00
634.88	911.00
634.90	909.00
634.92	920.00
634.93	918.00
634.95	920.00
634.97	921.00
634.99	923.00
635.00	921.00
635.02	933.00
635.04	925.00
635.06	914.00
635.08	905.00
635.09	929.00
635.11	934.00
635.13	944.00
635.15	923.00
635.16	938.00
635.18	911.00
635.20	927.00
635.22	927.00
635.23	903.00
635.25	924.00
635.27	928.00
635.29	922.00
635.30	905.00
635.32	901.00
635.34	902.00
635.36	908.00
635.37	914.00
635.39	902.00
635.41	918.00
635.43	934.00
635.44	927.00
635.46	900.00
635.48	922.00
635.50	925.00
635.51	933.00
635.53	922.00
635.55	928.00
635.57	920.00
635.58	921.00
635.60	959.00
635.62	968.00
635.64	924.00
635.65	925.00
635.67	913.00
635.69	912.00
635.71	923.00
635.72	932.00
635.74	920.00
635.76	907.00
635.78	901.00
635.79	928.00
635.81	945.00
635.83	912.00
635.85	901.00
635.86	928.00
635.88	927.00
635.90	937.00
635.92	939.00
635.93	933.00
635.95	927.00
635.97	931.00
635.99	948.00
636.00	980.00
636.02	939.00
636.04	903.00
636.06	906.00
636.07	923.00
636.09	928.00
636.11	924.00
636.13	937.00
636.14	927.00
636.16	934.00
636.18	925.00
636.20	920.00
636.21	917.00
636.23	925.00
636.25	910.00
636.27	906.00
636.28	935.00
636.30	937.00
636.32	928.00
636.34	925.00
636.35	914.00
636.37	926.00
636.39	927.00
636.41	926.00
636.42	945.00
636.44	942.00
636.46	915.00
636.48	900.00
636.49	912.00
636.51	919.00
636.53	925.00
636.54	915.00
636.56	907.00
636.58	912.00
636.60	905.00
636.61	919.00
636.63	928.00
636.65	941.00
636.67	936.00
636.68	913.00
636.70	904.00
636.72	907.00
636.74	914.00
636.75	912.00
636.77	932.00
636.79	946.00
636.81	923.00
636.82	912.00
636.84	904.00
636.86	889.00
636.87	889.00
636.89	912.00
636.91	934.00
636.93	917.00
636.94	900.00
636.96	890.00
636.98	901.00
637.00	920.00
637.01	922.00
637.03	916.00
637.05	912.00
637.07	930.00
637.08	922.00
637.10	918.00
637.12	908.00
637.13	913.00
637.15	936.00
637.17	923.00
637.19	921.00
637.20	929.00
637.22	913.00
637.24	920.00
637.26	952.00
637.27	931.00
637.29	921.00
637.31	907.00
637.32	920.00
637.34	929.00
637.36	925.00
637.38	935.00
637.39	916.00
637.41	913.00
637.43	926.00
637.45	920.00
637.46	923.00
637.48	951.00
637.50	937.00
637.51	915.00
637.53	936.00
637.55	911.00
637.57	924.00
637.58	921.00
637.60	914.00
637.62	932.00
637.64	941.00
637.65	932.00
637.67	908.00
637.69	934.00
637.70	928.00
637.72	913.00
637.74	912.00
637.76	921.00
637.77	930.00
637.79	925.00
637.81	937.00
637.82	931.00
637.84	930.00
637.86	917.00
637.88	918.00
637.89	918.00
637.91	901.00
637.93	917.00
637.95	933.00
637.96	953.00
637.98	930.00
638.00	921.00
638.01	908.00
638.03	913.00
638.05	910.00
638.07	882.00
638.08	905.00
638.10	921.00
638.12	921.00
638.13	910.00
638.15	921.00
638.17	914.00
638.19	917.00
638.20	900.00
638.22	889.00
638.24	904.00
638.25	909.00
638.27	911.00
638.29	914.00
638.31	924.00
638.32	931.00
638.34	922.00
638.36	925.00
638.37	943.00
638.39	919.00
638.41	920.00
638.43	916.00
638.44	921.00
638.46	913.00
638.48	915.00
638.49	936.00
638.51	930.00
638.53	931.00
638.55	906.00
638.56	920.00
638.58	930.00
638.60	927.00
638.61	906.00
638.63	901.00
638.65	904.00
638.67	915.00
638.68	923.00
638.70	925.00
638.72	929.00
638.73	915.00
638.75	929.00
638.77	937.00
638.78	923.00
638.80	912.00
638.82	910.00
638.84	909.00
638.85	938.00
638.87	914.00
638.89	901.00
638.90	917.00
638.92	934.00
638.94	937.00
638.96	942.00
638.97	923.00
638.99	934.00
639.01	943.00
639.02	931.00
639.04	945.00
639.06	943.00
639.07	923.00
639.09	933.00
639.11	918.00
639.13	905.00
639.14	907.00
639.16	904.00
639.18	930.00
639.19	948.00
639.21	958.00
639.23	934.00
639.25	900.00
639.26	915.00
639.28	906.00
639.30	910.00
639.31	915.00
639.33	922.00
639.35	938.00
639.36	936.00
639.38	937.00
639.40	919.00
639.42	941.00
639.43	959.00
639.45	925.00
639.47	915.00
639.48	933.00
639.50	932.00
639.52	921.00
639.53	904.00
639.55	909.00
639.57	893.00
639.58	896.00
639.60	920.00
639.62	928.00
639.64	924.00
639.65	914.00
639.67	901.00
639.69	912.00
639.70	933.00
639.72	922.00
639.74	909.00
639.75	925.00
639.77	948.00
639.79	962.00
639.80	959.00
639.82	923.00
639.84	921.00
639.86	934.00
639.87	921.00
639.89	920.00
639.91	905.00
639.92	928.00
639.94	924.00
639.96	931.00
639.97	921.00
639.99	930.00
640.01	917.00
640.02	912.00
640.04	902.00
640.06	910.00
640.08	908.00
640.09	922.00
640.11	933.00
640.13	929.00
640.14	920.00
640.16	913.00
640.18	923.00
640.19	913.00
640.21	913.00
640.23	922.00
640.24	928.00
640.26	942.00
640.28	947.00
640.29	918.00
640.31	905.00
640.33	911.00
640.35	927.00
640.36	896.00
640.38	913.00
640.40	956.00
640.41	962.00
640.43	911.00
640.45	902.00
640.46	922.00
640.48	912.00
640.50	903.00
640.51	907.00
640.53	909.00
640.55	906.00
640.56	916.00
640.58	938.00
640.60	945.00
640.61	919.00
640.63	900.00
640.65	898.00
640.66	910.00
640.68	929.00
640.70	911.00
640.72	909.00
640.73	910.00
640.75	902.00
640.77	922.00
640.78	933.00
640.80	924.00
640.82	927.00
640.83	926.00
640.85	945.00
640.87	948.00
640.88	960.00
640.90	933.00
640.92	919.00
640.93	920.00
640.95	915.00
640.97	918.00
640.98	909.00
641.00	913.00
641.02	906.00
641.03	886.00
641.05	897.00
641.07	897.00
641.08	926.00
641.10	924.00
641.12	927.00
641.13	921.00
641.15	910.00
641.17	914.00
641.18	906.00
641.20	936.00
641.22	942.00
641.23	918.00
641.25	913.00
641.27	932.00
641.28	914.00
641.30	923.00
641.32	917.00
641.34	911.00
641.35	909.00
641.37	920.00
641.39	920.00
641.40	922.00
641.42	926.00
641.44	925.00
641.45	958.00
641.47	938.00
641.49	921.00
641.50	923.00
641.52	904.00
641.54	922.00
641.55	951.00
641.57	926.00
641.59	913.00
641.60	899.00
641.62	916.00
641.64	905.00
641.65	904.00
641.67	919.00
641.69	932.00
641.70	930.00
641.72	917.00
641.74	928.00
641.75	899.00
641.77	908.00
641.79	917.00
641.80	898.00
641.82	924.00
641.84	947.00
641.85	927.00
641.87	932.00
641.88	926.00
641.90	911.00
641.92	896.00
641.93	930.00
641.95	926.00
641.97	909.00
641.98	904.00
642.00	918.00
642.02	911.00
642.03	926.00
642.05	927.00
642.07	905.00
642.08	922.00
642.10	927.00
642.12	925.00
642.13	925.00
642.15	914.00
642.17	896.00
642.18	890.00
642.20	908.00
642.22	942.00
642.23	944.00
642.25	948.00
642.27	931.00
642.28	921.00
642.30	893.00
642.32	891.00
642.33	925.00
642.35	930.00
642.37	906.00
642.38	891.00
642.40	917.00
642.42	941.00
642.43	928.00
642.45	889.00
642.47	902.00
642.48	922.00
642.50	905.00
642.51	909.00
642.53	892.00
642.55	915.00
642.56	937.00
642.58	926.00
642.60	903.00
642.61	934.00
642.63	948.00
642.65	950.00
642.66	958.00
642.68	925.00
642.70	931.00
642.71	920.00
642.73	919.00
642.75	929.00
642.76	904.00
642.78	907.00
642.80	908.00
642.81	909.00
642.83	898.00
642.84	896.00
642.86	909.00
642.88	892.00
642.89	936.00
642.91	971.00
642.93	913.00
642.94	921.00
642.96	943.00
642.98	922.00
642.99	927.00
643.01	937.00
643.03	909.00
643.04	915.00
643.06	924.00
643.08	905.00
643.09	907.00
643.11	894.00
643.12	909.00
643.14	916.00
643.16	915.00
643.17	909.00
643.19	942.00
643.21	934.00
643.22	916.00
643.24	937.00
643.26	924.00
643.27	916.00
643.29	918.00
643.31	941.00
643.32	929.00
643.34	905.00
643.35	914.00
643.37	920.00
643.39	924.00
643.40	917.00
643.42	925.00
643.44	921.00
643.45	951.00
643.47	941.00
643.49	915.00
643.50	931.00
643.52	929.00
643.53	900.00
643.55	922.00
643.57	918.00
643.58	912.00
643.60	901.00
643.62	911.00
643.63	916.00
643.65	922.00
643.67	914.00
643.68	900.00
643.70	916.00
643.71	914.00
643.73	924.00
643.75	913.00
643.76	916.00
643.78	901.00
643.80	926.00
643.81	934.00
643.83	929.00
643.85	909.00
643.86	927.00
643.88	937.00
643.89	924.00
643.91	926.00
643.93	914.00
643.94	928.00
643.96	905.00
643.98	899.00
643.99	914.00
644.01	925.00
644.03	918.00
644.04	903.00
644.06	926.00
644.07	934.00
644.09	923.00
644.11	937.00
644.12	928.00
644.14	922.00
644.16	917.00
644.17	912.00
644.19	933.00
644.20	917.00
644.22	927.00
644.24	929.00
644.25	917.00
644.27	919.00
644.29	935.00
644.30	914.00
644.32	914.00
644.33	925.00
644.35	938.00
644.37	923.00
644.38	931.00
644.40	934.00
644.42	921.00
644.43	924.00
644.45	906.00
644.46	906.00
644.48	914.00
644.50	912.00
644.51	919.00
644.53	909.00
644.55	933.00
644.56	910.00
644.58	919.00
644.59	920.00
644.61	909.00
644.63	900.00
644.64	913.00
644.66	890.00
644.68	884.00
644.69	904.00
644.71	907.00
644.72	918.00
644.74	916.00
644.76	908.00
644.77	913.00
644.79	909.00
644.80	932.00
644.82	924.00
644.84	929.00
644.85	924.00
644.87	906.00
644.89	915.00
644.90	916.00
644.92	943.00
644.93	936.00
644.95	933.00
644.97	912.00
644.98	922.00
645.00	906.00
645.01	903.00
645.03	920.00
645.05	911.00
645.06	900.00
645.08	963.00
645.10	1002.00
645.11	921.00
645.13	919.00
645.14	908.00
645.16	924.00
645.18	922.00
645.19	917.00
645.21	930.00
645.22	920.00
645.24	936.00
645.26	948.00
645.27	917.00
645.29	930.00
645.31	921.00
645.32	929.00
645.34	926.00
645.35	923.00
645.37	915.00
645.39	917.00
645.40	914.00
645.42	929.00
645.43	906.00
645.45	916.00
645.47	926.00
645.48	905.00
645.50	905.00
645.51	900.00
645.53	906.00
645.55	914.00
645.56	921.00
645.58	907.00
645.59	917.00
645.61	904.00
645.63	923.00
645.64	939.00
645.66	931.00
645.68	913.00
645.69	904.00
645.71	904.00
645.72	885.00
645.74	918.00
645.76	929.00
645.77	918.00
645.79	903.00
645.80	927.00
645.82	946.00
645.84	904.00
645.85	936.00
645.87	923.00
645.88	899.00
645.90	905.00
645.92	903.00
645.93	906.00
645.95	922.00
645.96	915.00
645.98	925.00
646.00	925.00
646.01	940.00
646.03	920.00
646.04	907.00
646.06	917.00
646.08	908.00
646.09	931.00
646.11	904.00
646.12	919.00
646.14	931.00
646.16	937.00
646.17	953.00
646.19	934.00
646.20	906.00
646.22	897.00
646.24	954.00
646.25	953.00
646.27	915.00
646.28	940.00
646.30	923.00
646.32	946.00
646.33	948.00
646.35	949.00
646.36	933.00
646.38	917.00
646.39	906.00
646.41	911.00
646.43	925.00
646.44	907.00
646.46	905.00
646.47	922.00
646.49	919.00
646.51	911.00
646.52	897.00
646.54	916.00
646.55	910.00
646.57	909.00
646.59	912.00
646.60	920.00
646.62	924.00
646.63	934.00
646.65	932.00
646.67	922.00
646.68	909.00
646.70	927.00
646.71	926.00
646.73	924.00
646.75	914.00
646.76	925.00
646.78	931.00
646.79	918.00
646.81	923.00
646.82	902.00
646.84	913.00
646.86	914.00
646.87	919.00
646.89	919.00
646.90	914.00
646.92	922.00
646.94	932.00
646.95	910.00
646.97	924.00
646.98	952.00
647.00	941.00
647.01	919.00
647.03	935.00
647.05	913.00
647.06	909.00
647.08	913.00
647.09	923.00
647.11	926.00
647.13	908.00
647.14	920.00
647.16	939.00
647.17	914.00
647.19	910.00
647.20	888.00
647.22	886.00
647.24	913.00
647.25	919.00
647.27	906.00
647.28	908.00
647.30	929.00
647.32	915.00
647.33	908.00
647.35	944.00
647.36	919.00
647.38	938.00
647.39	930.00
647.41	938.00
647.43	927.00
647.44	922.00
647.46	919.00
647.47	922.00
647.49	902.00
647.50	924.00
647.52	927.00
647.54	914.00
647.55	911.00
647.57	917.00
647.58	932.00
647.60	933.00
647.62	938.00
647.63	942.00
647.65	924.00
647.66	920.00
647.68	894.00
647.69	899.00
647.71	905.00
647.73	897.00
647.74	901.00
647.76	906.00
647.77	917.00
647.79	912.00
647.80	918.00
647.82	929.00
647.84	929.00
647.85	935.00
647.87	931.00
647.88	924.00
647.90	924.00
647.91	921.00
647.93	927.00
647.95	916.00
647.96	930.00
647.98	934.00
647.99	922.00
648.01	913.00
648.02	932.00
648.04	905.00
648.06	918.00
648.07	915.00
648.09	911.00
648.10	912.00
648.12	919.00
648.13	897.00
648.15	919.00
648.17	927.00
648.18	909.00
648.20	906.00
648.21	910.00
648.23	915.00
648.24	932.00
648.26	937.00
648.27	921.00
648.29	918.00
648.31	917.00
648.32	927.00
648.34	923.00
648.35	937.00
648.37	968.00
648.38	1005.00
648.40	922.00
648.42	910.00
648.43	916.00
648.45	930.00
648.46	948.00
648.48	926.00
648.49	910.00
648.51	917.00
648.52	933.00
648.54	900.00
648.56	909.00
648.57	923.00
648.59	922.00
648.60	919.00
648.62	913.00
648.63	912.00
648.65	935.00
648.67	923.00
648.68	909.00
648.70	926.00
648.71	931.00
648.73	938.00
648.74	928.00
648.76	946.00
648.77	949.00
648.79	907.00
648.81	906.00
648.82	916.00
648.84	946.00
648.85	921.00
648.87	922.00
648.88	916.00
648.90	914.00
648.91	913.00
648.93	919.00
648.95	956.00
648.96	955.00
648.98	924.00
648.99	916.00
649.01	919.00
649.02	917.00
649.04	927.00
649.05	909.00
649.07	923.00
649.09	929.00
649.10	941.00
649.12	902.00
649.13	916.00
649.15	915.00
649.16	919.00
649.18	922.00
649.19	920.00
649.21	927.00
649.22	926.00
649.24	955.00
649.26	962.00
649.27	937.00
649.29	917.00
649.30	909.00
649.32	916.00
649.33	902.00
649.35	916.00
649.36	923.00
649.38	930.00
649.40	927.00
649.41	930.00
649.43	924.00
649.44	913.00
649.46	931.00
649.47	901.00
649.49	906.00
649.50	916.00
649.52	936.00
649.53	934.00
649.55	946.00
649.57	946.00
649.58	944.00
649.60	942.00
649.61	927.00
649.63	935.00
649.64	931.00
649.66	916.00
649.67	926.00
649.69	941.00
649.70	929.00
649.72	940.00
649.73	931.00
649.75	947.00
649.77	914.00
649.78	924.00
649.80	901.00
649.81	922.00
649.83	932.00
649.84	918.00
649.86	924.00
649.87	911.00
649.89	932.00
649.90	929.00
649.92	918.00
649.94	899.00
649.95	924.00
649.97	902.00
649.98	916.00
650.00	939.00
650.01	918.00
650.03	918.00
650.04	914.00
650.06	909.00
650.07	896.00
650.09	917.00
650.10	943.00
650.12	917.00
650.13	915.00
650.15	906.00
650.17	923.00
650.18	935.00
650.20	942.00
650.21	935.00
650.23	932.00
650.24	948.00
650.26	926.00
650.27	923.00
650.29	911.00
650.30	914.00
650.32	919.00
650.33	916.00
650.35	909.00
650.36	937.00
650.38	943.00
650.40	909.00
650.41	921.00
650.43	919.00
650.44	919.00
650.46	923.00
650.47	913.00
650.49	924.00
650.50	905.00
650.52	900.00
650.53	921.00
650.55	939.00
650.56	958.00
650.58	938.00
650.59	922.00
650.61	923.00
650.62	919.00
650.64	916.00
650.66	904.00
650.67	925.00
650.69	936.00
650.70	930.00
650.72	923.00
650.73	938.00
650.75	938.00
650.76	927.00
650.78	917.00
650.79	924.00
650.81	929.00
650.82	925.00
650.84	914.00
650.85	930.00
650.87	947.00
650.88	952.00
650.90	915.00
650.91	922.00
650.93	930.00
650.95	905.00
650.96	926.00
650.98	918.00
650.99	914.00
651.01	919.00
651.02	908.00
651.04	918.00
651.05	916.00
651.07	890.00
651.08	897.00
651.10	909.00
651.11	911.00
651.13	910.00
651.14	925.00
651.16	910.00
651.17	910.00
651.19	932.00
651.20	912.00
651.22	898.00
651.23	924.00
651.25	921.00
651.26	909.00
651.28	913.00
651.29	924.00
651.31	948.00
651.33	904.00
651.34	899.00
651.36	908.00
651.37	902.00
651.39	873.00
651.40	910.00
651.42	934.00
651.43	921.00
651.45	916.00
651.46	903.00
651.48	927.00
651.49	964.00
651.51	913.00
651.52	925.00
651.54	922.00
651.55	910.00
651.57	909.00
651.58	941.00
651.60	976.00
651.61	897.00
651.63	922.00
651.64	920.00
651.66	906.00
651.67	911.00
651.69	917.00
651.70	921.00
651.72	941.00
651.73	958.00
651.75	915.00
651.76	915.00
651.78	917.00
651.79	901.00
651.81	906.00
651.82	935.00
651.84	928.00
651.85	923.00
651.87	930.00
651.88	945.00
651.90	910.00
651.91	906.00
651.93	927.00
651.94	937.00
651.96	929.00
651.97	930.00
651.99	927.00
652.00	916.00
652.02	915.00
652.04	944.00
652.05	962.00
652.07	1040.00
652.08	918.00
652.10	909.00
652.11	960.00
652.13	924.00
652.14	920.00
652.16	924.00
652.17	916.00
652.19	899.00
652.20	928.00
652.22	931.00
652.23	924.00
652.25	932.00
652.26	935.00
652.28	935.00
652.29	921.00
652.31	907.00
652.32	937.00
652.34	918.00
652.35	912.00
652.37	916.00
652.38	933.00
652.40	937.00
652.41	923.00
652.43	948.00
652.44	953.00
652.46	919.00
652.47	926.00
652.49	925.00
652.50	907.00
652.52	911.00
652.53	920.00
652.55	919.00
652.56	925.00
652.58	913.00
652.59	948.00
652.61	992.00
652.62	922.00
652.64	900.00
652.65	899.00
652.66	903.00
652.68	925.00
652.69	936.00
652.71	920.00
652.72	896.00
652.74	911.00
652.75	931.00
652.77	958.00
652.78	924.00
652.80	922.00
652.81	938.00
652.83	932.00
652.84	922.00
652.86	905.00
652.87	921.00
652.89	941.00
652.90	938.00
652.92	904.00
652.93	915.00
652.95	913.00
652.96	921.00
652.98	910.00
652.99	908.00
653.01	929.00
653.02	919.00
653.04	913.00
653.05	924.00
653.07	923.00
653.08	927.00
653.10	927.00
653.11	925.00
653.13	926.00
653.14	949.00
653.16	964.00
653.17	917.00
653.19	926.00
653.20	916.00
653.22	923.00
653.23	926.00
653.25	915.00
653.26	897.00
653.28	941.00
653.29	954.00
653.31	922.00
653.32	919.00
653.33	893.00
653.35	905.00
653.36	918.00
653.38	911.00
653.39	902.00
653.41	911.00
653.42	919.00
653.44	920.00
653.45	913.00
653.47	895.00
653.48	901.00
653.50	921.00
653.51	935.00
653.53	943.00
653.54	946.00
653.56	917.00
653.57	914.00
653.59	931.00
653.60	932.00
653.62	906.00
653.63	900.00
653.65	906.00
653.66	918.00
653.68	923.00
653.69	906.00
653.71	899.00
653.72	915.00
653.73	900.00
653.75	896.00
653.76	912.00
653.78	925.00
653.79	919.00
653.81	913.00
653.82	914.00
653.84	922.00
653.85	945.00
653.87	903.00
653.88	896.00
653.90	910.00
653.91	926.00
653.93	942.00
653.94	938.00
653.96	934.00
653.97	903.00
653.99	901.00
654.00	913.00
654.01	927.00
654.03	932.00
654.04	949.00
654.06	931.00
654.07	932.00
654.09	918.00
654.10	923.00
654.12	932.00
654.13	949.00
654.15	937.00
654.16	905.00
654.18	916.00
654.19	889.00
654.21	900.00
654.22	920.00
654.24	921.00
654.25	980.00
654.26	1030.00
654.28	946.00
654.29	926.00
654.31	937.00
654.32	961.00
654.34	940.00
654.35	928.00
654.37	937.00
654.38	910.00
654.40	914.00
654.41	916.00
654.43	939.00
654.44	921.00
654.46	912.00
654.47	914.00
654.48	923.00
654.50	933.00
654.51	923.00
654.53	923.00
654.54	931.00
654.56	941.00
654.57	921.00
654.59	923.00
654.60	925.00
654.62	920.00
654.63	925.00
654.65	923.00
654.66	914.00
654.67	912.00
654.69	921.00
654.70	922.00
654.72	930.00
654.73	923.00
654.75	922.00
654.76	912.00
654.78	927.00
654.79	933.00
654.81	913.00
654.82	947.00
654.84	948.00
654.85	936.00
654.86	929.00
654.88	915.00
654.89	915.00
654.91	924.00
654.92	913.00
654.94	904.00
654.95	914.00
654.97	918.00
654.98	926.00
655.00	913.00
655.01	935.00
655.02	914.00
655.04	905.00
655.05	905.00
655.07	909.00
655.08	925.00
655.10	931.00
655.11	923.00
655.13	929.00
655.14	914.00
655.16	918.00
655.17	916.00
655.18	922.00
655.20	922.00
655.21	960.00
655.23	965.00
655.24	938.00
655.26	926.00
655.27	933.00
655.29	899.00
655.30	889.00
655.32	911.00
655.33	930.00
655.34	933.00
655.36	917.00
655.37	935.00
655.39	917.00
655.40	923.00
655.42	940.00
655.43	941.00
655.45	956.00
655.46	917.00
655.47	923.00
655.49	916.00
655.50	913.00
655.52	921.00
655.53	939.00
655.55	954.00
655.56	966.00
655.58	940.00
655.59	928.00
655.60	913.00
655.62	922.00
655.63	943.00
655.65	926.00
655.66	936.00
655.68	924.00
655.69	945.00
655.71	945.00
655.72	941.00
655.73	942.00
655.75	946.00
655.76	947.00
655.78	956.00
655.79	981.00
655.81	965.00
655.82	950.00
655.84	966.00
655.85	1001.00
655.86	983.00
655.88	977.00
655.89	974.00
655.91	960.00
655.92	977.00
655.94	1027.00
655.95	1024.00
655.97	1012.00
655.98	1030.00
655.99	1094.00
656.01	1184.00
656.02	1508.00
656.04	2591.00
656.05	5321.00
656.07	9672.00
656.08	13197.00
656.09	12875.00
656.11	9450.00
656.12	5887.00
656.14	3764.00
656.15	2581.00
656.17	1973.00
656.18	1694.00
656.20	1747.00
656.21	2465.00
656.22	4814.00
656.24	9365.00
656.25	14297.00
656.27	15822.00
656.28	12960.00
656.30	8573.00
656.31	5321.00
656.32	3411.00
656.34	2353.00
656.35	1790.00
656.37	1488.00
656.38	1271.00
656.40	1158.00
656.41	1098.00
656.42	1055.00
656.44	1016.00
656.45	992.00
656.47	991.00
656.48	1005.00
656.50	978.00
656.51	961.00
656.52	979.00
656.54	950.00
656.55	951.00
656.57	944.00
656.58	963.00
656.60	965.00
656.61	930.00
656.62	938.00
656.64	934.00
656.65	947.00
656.67	941.00
656.68	945.00
656.70	946.00
656.71	943.00
656.72	961.00
656.74	954.00
656.75	964.00
656.77	924.00
656.78	950.00
656.80	956.00
656.81	966.00
656.82	923.00
656.84	917.00
656.85	924.00
656.87	935.00
656.88	946.00
656.90	922.00
656.91	925.00
656.92	913.00
656.94	919.00
656.95	928.00
656.97	939.00
656.98	958.00
657.00	943.00
657.01	929.00
657.02	923.00
657.04	925.00
657.05	938.00
657.07	957.00
657.08	923.00
657.09	932.00
657.11	923.00
657.12	927.00
657.14	906.00
657.15	926.00
657.17	927.00
657.18	916.00
657.19	899.00
657.21	916.00
657.22	908.00
657.24	926.00
657.25	914.00
657.26	917.00
657.28	908.00
657.29	912.00
657.31	918.00
657.32	929.00
657.34	925.00
657.35	935.00
657.36	936.00
657.38	934.00
657.39	920.00
657.41	934.00
657.42	946.00
657.43	931.00
657.45	938.00
657.46	907.00
657.48	908.00
657.49	911.00
657.51	912.00
657.52	928.00
657.53	914.00
657.55	921.00
657.56	934.00
657.58	940.00
657.59	932.00
657.60	939.00
657.62	929.00
657.63	921.00
657.65	922.00
657.66	926.00
657.67	943.00
657.69	934.00
657.70	921.00
657.72	928.00
657.73	925.00
657.75	934.00
657.76	918.00
657.77	909.00
657.79	924.00
657.80	919.00
657.82	926.00
657.83	928.00
657.84	924.00
657.86	937.00
657.87	920.00
657.89	928.00
657.90	918.00
657.91	935.00
657.93	942.00
657.94	922.00
657.96	910.00
657.97	911.00
657.98	913.00
658.00	937.00
658.01	926.00
658.03	899.00
658.04	910.00
658.05	924.00
658.07	900.00
658.08	911.00
658.10	921.00
658.11	944.00
658.12	936.00
658.14	938.00
658.15	919.00
658.17	952.00
658.18	932.00
658.19	914.00
658.21	898.00
658.22	905.00
658.24	909.00
658.25	916.00
658.26	922.00
658.28	923.00
658.29	915.00
658.31	903.00
658.32	915.00
658.33	922.00
658.35	927.00
658.36	913.00
658.38	906.00
658.39	940.00
658.40	960.00
658.42	939.00
658.43	922.00
658.45	917.00
658.46	912.00
658.47	917.00
658.49	918.00
658.50	933.00
658.52	934.00
658.53	905.00
658.54	904.00
658.56	912.00
658.57	910.00
658.59	927.00
658.60	924.00
658.61	907.00
658.63	913.00
658.64	914.00
658.66	923.00
658.67	912.00
658.68	996.00
658.70	1122.00
658.71	956.00
658.73	953.00
658.74	940.00
658.75	931.00
658.77	928.00
658.78	932.00
658.79	917.00
658.81	912.00
658.82	922.00
658.84	930.00
658.85	936.00
658.86	926.00
658.88	930.00
658.89	910.00
658.91	918.00
658.92	914.00
658.93	925.00
658.95	918.00
658.96	897.00
658.98	925.00
658.99	898.00
659.00	890.00
659.02	895.00
659.03	913.00
659.04	928.00
659.06	909.00
659.07	903.00
659.09	894.00
659.10	944.00
659.11	932.00
659.13	900.00
659.14	905.00
659.16	930.00
659.17	929.00
659.18	937.00
659.20	910.00
659.21	924.00
659.22	929.00
659.24	953.00
659.25	950.00
659.27	941.00
659.28	945.00
659.29	905.00
659.31	899.00
659.32	925.00
659.33	910.00
659.35	898.00
659.36	913.00
659.38	950.00
659.39	942.00
659.40	909.00
659.42	924.00
659.43	919.00
659.45	925.00
659.46	936.00
659.47	910.00
659.49	942.00
659.50	913.00
659.51	906.00
659.53	929.00
659.54	940.00
659.56	908.00
659.57	934.00
659.58	934.00
659.60	930.00
659.61	926.00
659.62	922.00
659.64	921.00
659.65	920.00
659.67	911.00
659.68	911.00
659.69	922.00
659.71	923.00
659.72	923.00
659.73	929.00
659.75	909.00
659.76	907.00
659.78	916.00
659.79	942.00
659.80	896.00
659.82	897.00
659.83	922.00
659.84	927.00
659.86	905.00
659.87	904.00
659.89	924.00
659.90	916.00
659.91	923.00
659.93	939.00
659.94	926.00
659.95	928.00
659.97	922.00
659.98	933.00
659.99	925.00
660.01	921.00
660.02	932.00
660.04	934.00
660.05	893.00
660.06	919.00
660.08	944.00
660.09	971.00
660.10	906.00
660.12	915.00
660.13	934.00
660.15	921.00
660.16	916.00
660.17	932.00
660.19	930.00
660.20	926.00
660.21	903.00
660.23	932.00
660.24	916.00
660.25	896.00
660.27	912.00
660.28	917.00
660.30	923.00
660.31	900.00
660.32	917.00
660.34	897.00
660.35	889.00
660.36	913.00
660.38	914.00
660.39	938.00
660.40	932.00
660.42	925.00
660.43	907.00
660.45	911.00
660.46	921.00
660.47	914.00
660.49	918.00
660.50	912.00
660.51	913.00
660.53	919.00
660.54	933.00
660.55	935.00
660.57	918.00
660.58	924.00
660.59	920.00
660.61	900.00
660.62	922.00
660.64	940.00
660.65	934.00
660.66	925.00
660.68	927.00
660.69	932.00
660.70	925.00
660.72	911.00
660.73	921.00
660.74	921.00
660.76	912.00
660.77	923.00
660.78	912.00
660.80	924.00
660.81	938.00
660.83	930.00
660.84	912.00
660.85	919.00
660.87	926.00
660.88	924.00
660.89	915.00
660.91	938.00
660.92	941.00
660.93	917.00
660.95	926.00
660.96	909.00
660.97	926.00
660.99	930.00
661.00	906.00
661.01	898.00
661.03	914.00
661.04	915.00
661.06	932.00
661.07	921.00
661.08	909.00
661.10	946.00
661.11	1001.00
661.12	921.00
661.14	925.00
661.15	899.00
661.16	906.00
661.18	924.00
661.19	930.00
661.20	944.00
661.22	956.00
661.23	929.00
661.24	915.00
661.26	917.00
661.27	904.00
661.28	912.00
661.30	890.00
661.31	897.00
661.32	900.00
661.34	901.00
661.35	900.00
661.36	918.00
661.38	930.00
661.39	918.00
661.41	915.00
661.42	927.00
661.43	904.00
661.45	917.00
661.46	940.00
661.47	935.00
661.49	943.00
661.50	938.00
661.51	918.00
661.53	941.00
661.54	928.00
661.55	922.00
661.57	910.00
661.58	941.00
661.59	910.00
661.61	914.00
661.62	938.00
661.63	935.00
661.65	926.00
661.66	920.00
661.67	917.00
661.69	923.00
661.70	931.00
661.71	919.00
661.73	948.00
661.74	980.00
661.75	914.00
661.77	927.00
661.78	946.00
661.79	947.00
661.81	907.00
661.82	916.00
661.83	922.00
661.85	909.00
661.86	930.00
661.87	919.00
661.89	930.00
661.90	918.00
661.91	911.00
661.93	903.00
661.94	908.00
661.95	927.00
661.97	942.00
661.98	936.00
661.99	911.00
662.01	916.00
662.02	924.00
662.03	917.00
662.05	934.00
662.06	930.00
662.07	892.00
662.09	906.00
662.10	905.00
662.11	915.00
662.13	921.00
662.14	899.00
662.15	919.00
662.17	921.00
662.18	909.00
662.19	911.00
662.21	917.00
662.22	918.00
662.23	904.00
662.25	906.00
662.26	921.00
662.27	922.00
662.29	914.00
662.30	931.00
662.31	899.00
662.33	902.00
662.34	902.00
662.35	914.00
662.37	916.00
662.38	906.00
662.39	912.00
662.41	922.00
662.42	926.00
662.43	937.00
662.45	913.00
662.46	906.00
662.47	909.00
662.49	908.00
662.50	908.00
662.51	925.00
662.52	923.00
662.54	895.00
662.55	913.00
662.56	919.00
662.58	914.00
662.59	926.00
662.60	944.00
662.62	919.00
662.63	926.00
662.64	931.00
662.66	920.00
662.67	931.00
662.68	926.00
662.70	922.00
662.71	930.00
662.72	925.00
662.74	916.00
662.75	942.00
662.76	940.00
662.78	922.00
662.79	929.00
662.80	918.00
662.82	927.00
662.83	918.00
662.84	905.00
662.85	920.00
662.87	916.00
662.88	902.00
662.89	908.00
662.91	922.00
662.92	945.00
662.93	906.00
662.95	910.00
662.96	918.00
662.97	928.00
662.99	905.00
663.00	903.00
663.01	933.00
663.03	927.00
663.04	926.00
663.05	920.00
663.06	915.00
663.08	925.00
663.09	922.00
663.10	921.00
663.12	913.00
663.13	929.00
663.14	927.00
663.16	897.00
663.17	906.00
663.18	932.00
663.20	934.00
663.21	925.00
663.22	938.00
663.24	950.00
663.25	920.00
663.26	913.00
663.27	903.00
663.29	921.00
663.30	915.00
663.31	924.00
663.33	932.00
663.34	940.00
663.35	935.00
663.37	913.00
663.38	940.00
663.39	962.00
663.41	906.00
663.42	888.00
663.43	912.00
663.44	929.00
663.46	929.00
663.47	920.00
663.48	902.00
663.50	908.00
663.51	894.00
663.52	908.00
663.54	907.00
663.55	900.00
663.56	909.00
663.57	907.00
663.59	890.00
663.60	894.00
663.61	908.00
663.63	920.00
663.64	923.00
663.65	918.00
663.67	900.00
663.68	892.00
663.69	939.00
663.71	943.00
663.72	916.00
663.73	912.00
663.74	917.00
663.76	954.00
663.77	925.00
663.78	921.00
663.80	942.00
663.81	937.00
663.82	918.00
663.84	892.00
663.85	898.00
663.86	913.00
663.87	916.00
663.89	919.00
663.90	918.00
663.91	918.00
663.93	912.00
663.94	909.00
663.95	926.00
663.96	965.00
663.98	932.00
663.99	910.00
664.00	917.00
664.02	935.00
664.03	926.00
664.04	925.00
664.06	929.00
664.07	943.00
664.08	924.00
664.09	922.00
664.11	930.00
664.12	921.00
664.13	912.00
664.15	907.00
664.16	897.00
664.17	899.00
664.18	910.00
664.20	907.00
664.21	920.00
664.22	913.00
664.24	917.00
664.25	918.00
664.26	914.00
664.27	913.00
664.29	936.00
664.30	939.00
664.31	923.00
664.33	918.00
664.34	907.00
664.35	923.00
664.37	924.00
664.38	913.00
664.39	922.00
664.40	922.00
664.42	939.00
664.43	926.00
664.44	915.00
664.46	904.00
664.47	894.00
664.48	918.00
664.49	930.00
664.51	896.00
664.52	906.00
664.53	918.00
664.55	916.00
664.56	920.00
664.57	914.00
664.58	930.00
664.60	907.00
664.61	911.00
664.62	928.00
664.64	918.00
664.65	924.00
664.66	924.00
664.67	908.00
664.69	904.00
664.70	909.00
664.71	912.00
664.72	902.00
664.74	921.00
664.75	926.00
664.76	924.00
664.78	916.00
664.79	945.00
664.80	935.00
664.81	908.00
664.83	903.00
664.84	915.00
664.85	910.00
664.87	935.00
664.88	915.00
664.89	904.00
664.90	934.00
664.92	949.00
664.93	929.00
664.94	918.00
664.96	925.00
664.97	921.00
664.98	939.00
664.99	918.00
665.01	914.00
665.02	921.00
665.03	917.00
665.04	928.00
665.06	926.00
665.07	907.00
665.08	908.00
665.10	910.00
665.11	922.00
665.12	917.00
665.13	909.00
665.15	923.00
665.16	945.00
665.17	937.00
665.18	914.00
665.20	924.00
665.21	913.00
665.22	916.00
665.24	964.00
665.25	1010.00
665.26	920.00
665.27	913.00
665.29	939.00
665.30	916.00
665.31	907.00
665.32	933.00
665.34	932.00
665.35	931.00
665.36	904.00
665.38	912.00
665.39	926.00
665.40	942.00
665.41	933.00
665.43	923.00
665.44	904.00
665.45	916.00
665.46	924.00
665.48	924.00
665.49	930.00
665.50	933.00
665.51	908.00
665.53	934.00
665.54	918.00
665.55	912.00
665.57	916.00
665.58	931.00
665.59	926.00
665.60	919.00
665.62	945.00
665.63	934.00
665.64	929.00
665.65	902.00
665.67	926.00
665.68	929.00
665.69	942.00
665.70	931.00
665.72	914.00
665.73	914.00
665.74	932.00
665.75	913.00
665.77	914.00
665.78	914.00
665.79	948.00
665.80	935.00
665.82	910.00
665.83	889.00
665.84	924.00
665.86	914.00
665.87	896.00
665.88	900.00
665.89	925.00
665.91	913.00
665.92	920.00
665.93	905.00
665.94	923.00
665.96	912.00
665.97	899.00
665.98	910.00
665.99	889.00
666.01	889.00
666.02	908.00
666.03	929.00
666.04	922.00
666.06	928.00
666.07	944.00
666.08	923.00
666.09	924.00
666.11	922.00
666.12	929.00
666.13	908.00
666.14	904.00
666.16	916.00
666.17	917.00
666.18	922.00
666.19	913.00
666.21	930.00
666.22	938.00
666.23	932.00
666.24	918.00
666.26	929.00
666.27	919.00
666.28	916.00
666.29	910.00
666.31	917.00
666.32	931.00
666.33	923.00
666.34	926.00
666.36	932.00
666.37	945.00
666.38	940.00
666.39	942.00
666.41	925.00
666.42	917.00
666.43	930.00
666.44	924.00
666.46	924.00
666.47	930.00
666.48	926.00
666.49	924.00
666.51	931.00
666.52	904.00
666.53	887.00
666.54	908.00
666.56	929.00
666.57	893.00
666.58	922.00
666.59	925.00
666.61	919.00
666.62	917.00
666.63	931.00
666.64	927.00
666.66	916.00
666.67	922.00
666.68	941.00
666.69	944.00
666.71	927.00
666.72	904.00
666.73	928.00
666.74	925.00
666.76	940.00
666.77	930.00
666.78	900.00
666.79	911.00
666.81	925.00
666.82	918.00
666.83	921.00
666.84	915.00
666.85	921.00
666.87	920.00
666.88	899.00
666.89	923.00
666.90	934.00
666.92	936.00
666.93	916.00
666.94	930.00
666.95	924.00
666.97	916.00
666.98	918.00
666.99	902.00
667.00	915.00
667.02	922.00
667.03	924.00
667.04	904.00
667.05	917.00
667.07	919.00
667.08	917.00
667.09	934.00
667.10	929.00
667.11	902.00
667.13	899.00
667.14	899.00
667.15	927.00
667.16	927.00
667.18	944.00
667.19	913.00
667.20	915.00
667.21	915.00
667.23	909.00
667.24	925.00
667.25	932.00
667.26	938.00
667.27	914.00
667.29	922.00
667.30	961.00
667.31	938.00
667.32	913.00
667.34	924.00
667.35	933.00
667.36	911.00
667.37	885.00
667.39	917.00
667.40	924.00
667.41	915.00
667.42	942.00
667.43	931.00
667.45	908.00
667.46	902.00
667.47	922.00
667.48	933.00
667.50	902.00
667.51	908.00
667.52	925.00
667.53	907.00
667.55	914.00
667.56	927.00
667.57	924.00
667.58	914.00
667.59	913.00
667.61	938.00
667.62	931.00
667.63	946.00
667.64	937.00
667.66	914.00
667.67	903.00
667.68	909.00
667.69	904.00
667.70	913.00
667.72	918.00
667.73	926.00
667.74	916.00
667.75	920.00
667.77	907.00
667.78	914.00
667.79	928.00
667.80	915.00
667.81	908.00
667.83	938.00
667.84	933.00
667.85	910.00
667.86	909.00
667.88	887.00
667.89	903.00
667.90	915.00
667.91	910.00
667.92	906.00
667.94	915.00
667.95	932.00
667.96	937.00
667.97	923.00
667.98	934.00
668.00	918.00
668.01	926.00
668.02	949.00
668.03	936.00
668.05	926.00
668.06	901.00
668.07	905.00
668.08	922.00
668.09	946.00
668.11	925.00
668.12	931.00
668.13	927.00
668.14	927.00
668.16	936.00
668.17	934.00
668.18	941.00
668.19	912.00
668.20	908.00
668.22	914.00
668.23	932.00
668.24	930.00
668.25	928.00
668.26	921.00
668.28	901.00
668.29	922.00
668.30	913.00
668.31	915.00
668.32	911.00
668.34	908.00
668.35	908.00
668.36	914.00
668.37	941.00
668.39	917.00
668.40	908.00
668.41	899.00
668.42	925.00
668.43	925.00
668.45	924.00
668.46	926.00
668.47	908.00
668.48	924.00
668.49	925.00
668.51	940.00
668.52	931.00
668.53	918.00
668.54	921.00
668.55	928.00
668.57	919.00
668.58	907.00
668.59	924.00
668.60	918.00
668.61	913.00
668.63	909.00
668.64	914.00
668.65	924.00
668.66	927.00
668.67	912.00
668.69	905.00
668.70	950.00
668.71	929.00
668.72	914.00
668.73	916.00
668.75	922.00
668.76	920.00
668.77	911.00
668.78	904.00
668.79	912.00
668.81	914.00
668.82	907.00
668.83	925.00
668.84	905.00
668.85	929.00
668.87	907.00
668.88	913.00
668.89	935.00
668.90	934.00
668.91	911.00
668.93	923.00
668.94	925.00
668.95	932.00
668.96	930.00
668.97	934.00
668.99	950.00
669.00	925.00
669.01	943.00
669.02	930.00
669.03	934.00
669.05	919.00
669.06	925.00
669.07	921.00
669.08	903.00
669.09	904.00
669.11	906.00
669.12	924.00
669.13	934.00
669.14	926.00
669.15	938.00
669.17	928.00
669.18	927.00
669.19	909.00
669.20	905.00
669.21	916.00
669.23	918.00
669.24	929.00
669.25	930.00
669.26	909.00
669.27	912.00
669.29	923.00
669.30	906.00
669.31	919.00
669.32	933.00
669.33	934.00
669.34	920.00
669.36	904.00
669.37	901.00
669.38	923.00
669.39	907.00
669.40	902.00
669.42	905.00
669.43	908.00
669.44	901.00
669.45	894.00
669.46	902.00
669.48	933.00
669.49	898.00
669.50	917.00
669.51	919.00
669.52	922.00
669.53	915.00
669.55	918.00
669.56	920.00
669.57	913.00
669.58	904.00
669.59	917.00
669.61	928.00
669.62	927.00
669.63	917.00
669.64	907.00
669.65	922.00
669.66	926.00
669.68	928.00
669.69	920.00
669.70	920.00
669.71	945.00
669.72	919.00
669.74	917.00
669.75	935.00
669.76	937.00
669.77	917.00
669.78	925.00
669.79	916.00
669.81	923.00
669.82	918.00
669.83	925.00
669.84	926.00
669.85	917.00
669.87	913.00
669.88	917.00
669.89	934.00
669.90	939.00
669.91	918.00
669.92	931.00
669.94	949.00
669.95	935.00
669.96	926.00
669.97	918.00
669.98	908.00
669.99	913.00
670.01	922.00
670.02	923.00
670.03	937.00
670.04	918.00
670.05	918.00
670.07	923.00
670.08	922.00
670.09	930.00
670.10	910.00
670.11	919.00
670.12	925.00
670.14	925.00
670.15	913.00
670.16	905.00
670.17	896.00
670.18	892.00
670.19	919.00
670.21	929.00
670.22	926.00
670.23	925.00
670.24	903.00
670.25	925.00
670.26	948.00
670.28	934.00
670.29	921.00
670.30	925.00
670.31	912.00
670.32	920.00
670.33	912.00
670.35	910.00
670.36	935.00
670.37	936.00
670.38	910.00
670.39	915.00
670.40	919.00
670.42	913.00
670.43	918.00
670.44	910.00
670.45	915.00
670.46	901.00
670.47	901.00
670.49	899.00
670.50	910.00
670.51	931.00
670.52	920.00
670.53	921.00
670.54	909.00
670.56	905.00
670.57	942.00
670.58	908.00
670.59	912.00
670.60	908.00
670.61	913.00
670.63	920.00
670.64	903.00
670.65	913.00
670.66	901.00
670.67	884.00
670.68	908.00
670.70	925.00
670.71	934.00
670.72	936.00
670.73	946.00
670.74	937.00
670.75	934.00
670.77	944.00
670.78	941.00
670.79	908.00
670.80	914.00
670.81	916.00
670.82	914.00
670.84	934.00
670.85	916.00
670.86	901.00
670.87	901.00
670.88	914.00
670.89	895.00
670.90	888.00
670.92	905.00
670.93	922.00
670.94	919.00
670.95	920.00
670.96	910.00
670.97	906.00
670.99	913.00
671.00	892.00
671.01	902.00
671.02	901.00
671.03	894.00
671.04	900.00
671.05	906.00
671.07	910.00
671.08	906.00
671.09	914.00
671.10	916.00
671.11	922.00
671.12	918.00
671.14	911.00
671.15	910.00
671.16	903.00
671.17	921.00
671.18	940.00
671.19	925.00
671.20	936.00
671.22	912.00
671.23	903.00
671.24	929.00
671.25	918.00
671.26	921.00
671.27	914.00
671.28	906.00
671.30	895.00
671.31	903.00
671.32	891.00
671.33	901.00
671.34	932.00
671.35	936.00
671.37	926.00
671.38	906.00
671.39	898.00
671.40	894.00
671.41	914.00
671.42	904.00
671.43	918.00
671.45	931.00
671.46	921.00
671.47	936.00
671.48	927.00
671.49	906.00
671.50	925.00
671.51	921.00
671.53	930.00
671.54	903.00
671.55	905.00
671.56	915.00
671.57	914.00
671.58	925.00
671.59	930.00
671.61	934.00
671.62	940.00
671.63	919.00
671.64	917.00
671.65	915.00
671.66	909.00
671.67	900.00
671.69	908.00
671.70	894.00
671.71	902.00
671.72	915.00
671.73	902.00
671.74	909.00
671.75	920.00
671.77	920.00
671.78	908.00
671.79	911.00
671.80	929.00
671.81	935.00
671.82	949.00
671.83	897.00
671.84	912.00
671.86	920.00
671.87	923.00
671.88	940.00
671.89	969.00
671.90	913.00
671.91	901.00
671.92	899.00
671.94	905.00
671.95	916.00
671.96	918.00
671.97	950.00
671.98	922.00
671.99	914.00
672.00	898.00
672.01	916.00
672.03	914.00
672.04	904.00
672.05	905.00
672.06	900.00
672.07	891.00
672.08	898.00
672.09	914.00
672.11	944.00
672.12	964.00
672.13	914.00
672.14	902.00
672.15	894.00
672.16	904.00
672.17	907.00
672.18	907.00
672.20	932.00
672.21	925.00
672.22	923.00
672.23	938.00
672.24	941.00
672.25	919.00
672.26	918.00
672.27	919.00
672.29	940.00
672.30	930.00
672.31	898.00
672.32	893.00
672.33	911.00
672.34	924.00
672.35	900.00
672.36	896.00
672.38	909.00
672.39	904.00
672.40	911.00
672.41	910.00
672.42	921.00
672.43	960.00
672.44	940.00
672.45	900.00
672.47	927.00
672.48	918.00
672.49	938.00
672.50	921.00
672.51	913.00
672.52	924.00
672.53	908.00
672.54	921.00
672.56	945.00
672.57	914.00
672.58	907.00
672.59	926.00
672.60	928.00
672.61	915.00
672.62	917.00
672.63	915.00
672.65	908.00
672.66	912.00
672.67	913.00
672.68	914.00
672.69	910.00
672.70	903.00
672.71	906.00
672.72	892.00
672.73	905.00
672.75	916.00
672.76	906.00
672.77	908.00
672.78	922.00
672.79	910.00
672.80	898.00
672.81	914.00
672.82	923.00
672.84	924.00
672.85	910.00
672.86	916.00
672.87	913.00
672.88	920.00
672.89	912.00
672.90	922.00
672.91	916.00
672.92	907.00
672.94	908.00
672.95	919.00
672.96	935.00
672.97	908.00
672.98	913.00
672.99	926.00
673.00	917.00
673.01	917.00
673.02	911.00
673.04	906.00
673.05	921.00
673.06	914.00
673.07	921.00
673.08	906.00
673.09	898.00
673.10	885.00
673.11	917.00
673.12	935.00
673.14	933.00
673.15	922.00
673.16	909.00
673.17	923.00
673.18	916.00
673.19	897.00
673.20	900.00
673.21	893.00
673.22	920.00
673.24	920.00
673.25	907.00
673.26	920.00
673.27	913.00
673.28	930.00
673.29	924.00
673.30	925.00
673.31	917.00
673.32	909.00
673.33	906.00
673.35	915.00
673.36	913.00
673.37	901.00
673.38	916.00
673.39	932.00
673.40	936.00
673.41	917.00
673.42	918.00
673.43	908.00
673.44	917.00
673.46	897.00
673.47	903.00
673.48	934.00
673.49	934.00
673.50	906.00
673.51	909.00
673.52	923.00
673.53	953.00
673.54	939.00
673.55	912.00
673.57	936.00
673.58	928.00
673.59	919.00
673.60	927.00
673.61	914.00
673.62	937.00
673.63	969.00
673.64	937.00
673.65	908.00
673.66	901.00
673.68	903.00
673.69	919.00
673.70	901.00
673.71	920.00
673.72	922.00
673.73	916.00
673.74	901.00
673.75	935.00
673.76	957.00
673.77	922.00
673.79	919.00
673.80	925.00
673.81	920.00
673.82	906.00
673.83	930.00
673.84	944.00
673.85	927.00
673.86	924.00
673.87	912.00
673.88	923.00
673.89	914.00
673.91	926.00
673.92	925.00
673.93	925.00
673.94	918.00
673.95	904.00
673.96	906.00
673.97	919.00
673.98	921.00
673.99	911.00
674.00	925.00
674.01	908.00
674.03	916.00
674.04	900.00
674.05	904.00
674.06	926.00
674.07	929.00
674.08	919.00
674.09	946.00
674.10	913.00
674.11	895.00
674.12	909.00
674.13	904.00
674.14	904.00
674.16	903.00
674.17	927.00
674.18	909.00
674.19	905.00
674.20	922.00
674.21	904.00
674.22	907.00
674.23	916.00
674.24	897.00
674.25	909.00
674.26	932.00
674.27	922.00
674.29	903.00
674.30	909.00
674.31	912.00
674.32	906.00
674.33	910.00
674.34	921.00
674.35	917.00
674.36	919.00
674.37	934.00
674.38	888.00
674.39	897.00
674.40	940.00
674.42	930.00
674.43	913.00
674.44	908.00
674.45	900.00
674.46	912.00
674.47	920.00
674.48	916.00
674.49	901.00
674.50	899.00
674.51	909.00
674.52	885.00
674.53	878.00
674.54	888.00
674.56	918.00
674.57	913.00
674.58	920.00
674.59	922.00
674.60	907.00
674.61	907.00
674.62	927.00
674.63	921.00
674.64	899.00
674.65	906.00
674.66	916.00
674.67	928.00
674.68	925.00
674.70	932.00
674.71	935.00
674.72	919.00
674.73	914.00
674.74	897.00
674.75	908.00
674.76	910.00
674.77	913.00
674.78	897.00
674.79	924.00
674.80	920.00
674.81	912.00
674.82	926.00
674.83	914.00
674.85	907.00
674.86	919.00
674.87	923.00
674.88	900.00
674.89	921.00
674.90	922.00
674.91	925.00
674.92	930.00
674.93	920.00
674.94	912.00
674.95	915.00
674.96	940.00
674.97	944.00
674.98	931.00
674.99	931.00
675.01	917.00
675.02	919.00
675.03	909.00
675.04	906.00
675.05	910.00
675.06	922.00
675.07	934.00
675.08	933.00
675.09	884.00
675.10	905.00
675.11	906.00
675.12	923.00
675.13	930.00
675.14	925.00
675.15	917.00
675.17	910.00
675.18	922.00
675.19	944.00
675.20	938.00
675.21	928.00
675.22	923.00
675.23	929.00
675.24	933.00
675.25	928.00
675.26	917.00
675.27	906.00
675.28	914.00
675.29	918.00
675.30	920.00
675.31	919.00
675.32	928.00
675.33	901.00
675.35	899.00
675.36	901.00
675.37	892.00
675.38	893.00
675.39	917.00
675.40	910.00
675.41	932.00
675.42	931.00
675.43	931.00
675.44	913.00
675.45	907.00
675.46	912.00
675.47	921.00
675.48	924.00
675.49	936.00
675.50	927.00
675.51	902.00
675.52	921.00
675.54	909.00
675.55	909.00
675.56	911.00
675.57	912.00
675.58	904.00
675.59	908.00
675.60	921.00
675.61	915.00
675.62	912.00
675.63	901.00
675.64	898.00
675.65	909.00
675.66	936.00
675.67	910.00
675.68	922.00
675.69	919.00
675.70	904.00
675.71	930.00
675.72	935.00
675.74	919.00
675.75	916.00
675.76	903.00
675.77	908.00
675.78	913.00
675.79	921.00
675.80	924.00
675.81	952.00
675.82	952.00
675.83	927.00
675.84	918.00
675.85	912.00
675.86	927.00
675.87	923.00
675.88	929.00
675.89	935.00
675.90	925.00
675.91	908.00
675.92	909.00
675.93	912.00
675.94	932.00
675.95	925.00
675.97	907.00
675.98	936.00
675.99	952.00
676.00	916.00
676.01	922.00
676.02	922.00
676.03	903.00
676.04	894.00
676.05	917.00
676.06	925.00
676.07	910.00
676.08	932.00
676.09	927.00
676.10	910.00
676.11	917.00
676.12	926.00
676.13	914.00
676.14	924.00
676.15	921.00
676.16	904.00
676.17	902.00
676.18	898.00
676.19	916.00
676.20	911.00
676.22	910.00
676.23	908.00
676.24	935.00
676.25	927.00
676.26	908.00
676.27	912.00
676.28	923.00
676.29	937.00
676.30	921.00
676.31	926.00
676.32	917.00
676.33	931.00
676.34	933.00
676.35	938.00
676.36	915.00
676.37	917.00
676.38	902.00
676.39	910.00
676.40	923.00
676.41	937.00
676.42	910.00
676.43	919.00
676.44	952.00
676.45	934.00
676.46	907.00
676.47	922.00
676.48	930.00
676.49	918.00
676.50	932.00
676.52	923.00
676.53	926.00
676.54	922.00
676.55	933.00
676.56	927.00
676.57	920.00
676.58	918.00
676.59	934.00
676.60	925.00
676.61	934.00
676.62	908.00
676.63	910.00
676.64	901.00
676.65	910.00
676.66	901.00
676.67	897.00
676.68	915.00
676.69	938.00
676.70	937.00
676.71	915.00
676.72	945.00
676.73	926.00
676.74	919.00
676.75	923.00
676.76	936.00
676.77	902.00
676.78	898.00
676.79	916.00
676.80	929.00
676.81	894.00
676.82	895.00
676.83	927.00
676.84	936.00
676.85	913.00
676.86	922.00
676.87	914.00
676.88	923.00
676.89	910.00
676.90	886.00
676.92	896.00
676.93	921.00
676.94	925.00
676.95	910.00
676.96	906.00
676.97	905.00
676.98	916.00
676.99	912.00
677.00	914.00
677.01	936.00
677.02	924.00
677.03	911.00
677.04	910.00
677.05	917.00
677.06	918.00
677.07	915.00
677.08	911.00
677.09	918.00
677.10	914.00
677.11	907.00
677.12	917.00
677.13	924.00
677.14	929.00
677.15	908.00
677.16	905.00
677.17	920.00
677.18	924.00
677.19	925.00
677.20	913.00
677.21	909.00
677.22	909.00
677.23	899.00
677.24	899.00
677.25	895.00
677.26	916.00
677.27	920.00
677.28	914.00
677.29	900.00
677.30	916.00
677.31	926.00
677.32	954.00
677.33	913.00
677.34	909.00
677.35	911.00
677.36	923.00
677.37	939.00
677.38	936.00
677.39	913.00
677.40	924.00
677.41	911.00
677.42	914.00
677.43	906.00
677.44	923.00
677.45	940.00
677.46	906.00
677.47	888.00
677.48	891.00
677.49	901.00
677.50	913.00
677.51	924.00
677.52	927.00
677.53	954.00
677.54	927.00
677.55	922.00
677.56	926.00
677.57	937.00
677.58	924.00
677.59	899.00
677.60	899.00
677.61	933.00
677.62	933.00
677.63	922.00
677.64	919.00
677.65	913.00
677.66	906.00
677.67	908.00
677.68	909.00
677.69	915.00
677.70	919.00
677.71	913.00
677.72	892.00
677.73	902.00
677.74	892.00
677.75	886.00
677.76	894.00
677.77	927.00
677.78	944.00
677.79	919.00
677.80	926.00
677.81	928.00
677.82	904.00
677.83	913.00
677.84	901.00
677.85	916.00
677.86	926.00
677.87	896.00
677.88	907.00
677.89	929.00
677.90	926.00
677.91	930.00
677.92	924.00
677.93	956.00
677.94	933.00
677.95	906.00
677.96	915.00
677.97	924.00
677.98	913.00
677.99	913.00
678.00	920.00
678.01	903.00
678.02	919.00
678.03	923.00
678.04	920.00
678.05	900.00
678.06	898.00
678.07	926.00
678.08	924.00
678.09	955.00
678.10	934.00
678.11	915.00
678.12	920.00
678.13	915.00
678.14	901.00
678.15	902.00
678.16	906.00
678.17	889.00
678.18	903.00
678.19	906.00
678.20	892.00
678.21	902.00
678.22	916.00
678.23	913.00
678.24	912.00
678.25	920.00
678.26	936.00
678.27	935.00
678.28	918.00
678.29	927.00
678.30	918.00
678.31	901.00
678.32	893.00
678.33	928.00
678.34	915.00
678.35	895.00
678.36	913.00
678.37	917.00
678.38	923.00
678.39	891.00
678.40	911.00
678.41	909.00
678.42	908.00
678.43	896.00
678.44	910.00
678.45	920.00
678.46	931.00
678.47	927.00
678.48	912.00
678.49	912.00
678.50	939.00
678.51	936.00
678.52	920.00
678.53	933.00
678.54	923.00
678.55	907.00
678.56	891.00
678.57	904.00
678.58	898.00
678.59	907.00
678.60	920.00
678.61	908.00
678.62	901.00
678.63	917.00
678.64	946.00
678.64	936.00
678.65	916.00
678.66	916.00
678.67	912.00
678.68	919.00
678.69	908.00
678.70	909.00
678.71	932.00
678.72	933.00
678.73	926.00
678.74	900.00
678.75	905.00
678.76	914.00
678.77	939.00
678.78	913.00
678.79	915.00
678.80	920.00
678.81	907.00
678.82	909.00
678.83	915.00
678.84	921.00
678.85	911.00
678.86	905.00
678.87	908.00
678.88	922.00
678.89	929.00
678.90	916.00
678.91	930.00
678.92	905.00
678.93	908.00
678.94	888.00
678.95	909.00
678.96	930.00
678.97	929.00
678.98	917.00
678.99	928.00
679.00	905.00
679.01	898.00
679.02	897.00
679.02	904.00
679.03	906.00
679.04	926.00
679.05	920.00
679.06	907.00
679.07	917.00
679.08	927.00
679.09	910.00
679.10	916.00
679.11	913.00
679.12	918.00
679.13	922.00
679.14	916.00
679.15	923.00
679.16	915.00
679.17	904.00
679.18	934.00
679.19	924.00
679.20	910.00
679.21	925.00
679.22	918.00
679.23	921.00
679.24	926.00
679.25	922.00
679.26	911.00
679.27	924.00
679.28	924.00
679.29	915.00
679.30	915.00
679.30	889.00
679.31	901.00
679.32	905.00
679.33	894.00
679.34	927.00
679.35	927.00
679.36	908.00
679.37	927.00
679.38	938.00
679.39	919.00
679.40	948.00
679.41	934.00
679.42	926.00
679.43	902.00
679.44	887.00
679.45	912.00
679.46	950.00
679.47	915.00
679.48	901.00
679.49	906.00
679.50	917.00
679.51	923.00
679.52	908.00
679.53	905.00
679.53	932.00
679.54	920.00
679.55	913.00
679.56	916.00
679.57	924.00
679.58	905.00
679.59	911.00
679.60	929.00
679.61	944.00
679.62	920.00
679.63	912.00
679.64	924.00
679.65	933.00
679.66	918.00
679.67	915.00
679.68	937.00
679.69	945.00
679.70	926.00
679.71	932.00
679.72	949.00
679.73	949.00
679.74	933.00
679.74	893.00
679.75	899.00
679.76	933.00
679.77	931.00
679.78	897.00
679.79	920.00
679.80	927.00
679.81	901.00
679.82	897.00
679.83	914.00
679.84	919.00
679.85	928.00
679.86	921.00
679.87	894.00
679.88	918.00
679.89	892.00
679.90	889.00
679.91	907.00
679.92	914.00
679.92	923.00
679.93	914.00
679.94	936.00
679.95	932.00
679.96	929.00
679.97	915.00
679.98	910.00
679.99	913.00
680.00	901.00
680.01	904.00
680.02	901.00
680.03	901.00
680.04	934.00
680.05	912.00
680.06	898.00
680.07	903.00
680.08	896.00
680.09	885.00
680.09	916.00
680.10	910.00
680.11	901.00
680.12	908.00
680.13	920.00
680.14	931.00
680.15	911.00
680.16	907.00
680.17	914.00
680.18	927.00
680.19	913.00
680.20	896.00
680.21	904.00
680.22	916.00
>>>>>End Processed Spectral Data<<<<<
